Time (s),Linear Acceleration x (m/s^2),Linear Acceleration y (m/s^2),Linear Acceleration z (m/s^2),Absolute acceleration (m/s^2)
0.009621269,0,0,0,0
0.014621269,-0.0181941986083984,0.006195068359375,-0.0678274035453796,0.0704979744864131
0.019621269,-0.0220174789428711,-0.00427687168121338,-0.125156819820404,0.127150660863145
0.024621269,-0.0328073501586914,0.00669634342193604,-0.155327379703522,0.158895431417085
0.029621269,-0.0162258148193359,-0.00379049777984619,-0.174068033695221,0.174863733502665
0.034621269,0.0211029052734375,-0.013916015625,-0.175947904586792,0.177754474571916
0.039621269,0.0634393692016602,-0.032015323638916,-0.173866093158722,0.187826922624757
0.044621269,0.119965553283691,-0.0380948781967163,-0.150764584541321,0.196399882055468
0.049621269,0.166072845458984,-0.0461333990097046,-0.126724064350128,0.213933328372294
0.054621269,0.20551586151123,-0.040892481803894,-0.0902780294418335,0.228164605056713
0.059621269,0.213134765625,-0.051535964012146,-0.054857075214386,0.226034693367549
0.064621269,0.204599380493164,-0.032162070274353,-0.01982581615448,0.20805856927488
0.069621269,0.160488128662109,0.00136971473693848,0.0234463810920715,0.162197559618636
0.074621269,0.139129638671875,-0.00303888320922852,0.0615034103393555,0.152147824997589
0.079621269,0.105411529541016,0.0194928646087647,0.128375172615051,0.167247562836581
0.084621269,0.0540065765380859,0.0402730703353882,0.16053694486618,0.174099802327775
0.089621269,0.00970935821533203,0.0547655820846558,0.216045081615448,0.22308970820782
0.094621269,-0.035090446472168,0.0766522884368897,0.285335123538971,0.297528226360505
0.099621269,-0.0914621353149414,0.0970684289932251,0.305625140666962,0.333458136369892
0.104621269,-0.154096603393555,0.133318901062012,0.361115247011185,0.414637087320662
0.109621269,-0.21196174621582,0.156803131103516,0.440137684345245,0.513065478241833
0.114621269,-0.252840042114258,0.174847722053528,0.464736104011536,0.557206836978396
0.119621269,-0.281469345092773,0.195375084877014,0.503422498703003,0.60895864245286
0.124621269,-0.297748565673828,0.197946190834045,0.535584807395935,0.643962723098062
0.129621269,-0.307929039001465,0.192365169525146,0.579096436500549,0.683503719283545
0.134621269,-0.268435478210449,0.173543334007263,0.584607541561127,0.666288880584521
0.139621269,-0.221574783325195,0.132068991661072,0.581073462963104,0.635754648055296
0.144621269,-0.166770935058594,0.0980155467987061,0.580722212791443,0.612093032654316
0.149621269,-0.136327743530273,0.0669273138046265,0.547701358795166,0.568367220567153
0.154621269,-0.115498542785645,0.0266819000244141,0.527761816978455,0.540910688223962
0.159621269,-0.0913381576538086,0.0056682825088501,0.50620311498642,0.514408769454941
0.164621269,-0.100054740905762,-0.0150744915008545,0.439961552619934,0.451446961730247
0.169621269,-0.0897741317749023,-0.0478464365005493,0.403256863355637,0.415890338989938
0.174621269,-0.0908327102661133,-0.0916624069213867,0.36323094367981,0.385472822055504
0.179621269,-0.0994539260864258,-0.120796203613281,0.311341881752014,0.348448810522106
0.184621269,-0.115250587463379,-0.138944149017334,0.268748760223389,0.323750012476314
0.189621269,-0.111519813537598,-0.158333659172058,0.233114033937454,0.303064958807294
0.194621269,-0.103043556213379,-0.172043263912201,0.219790011644363,0.297530684725613
0.199621269,-0.0961599349975586,-0.195044875144959,0.18204203248024,0.283599256008516
0.204621269,-0.10434627532959,-0.198943674564362,0.161634057760239,0.276753138107537
0.209621269,-0.107847213745117,-0.199758768081665,0.143051743507385,0.268325153980375
0.214621269,-0.112903594970703,-0.186489105224609,0.108262896537781,0.24340555230219
0.219621269,-0.12049674987793,-0.162248134613037,0.0681013762950897,0.21326444000311
0.224621269,-0.108019828796387,-0.143778741359711,0.0247058570384979,0.181524073478396
0.229621269,-0.0962867736816406,-0.123123168945313,0.019887387752533,0.157562577120251
0.234621269,-0.0759944915771484,-0.0893557071685791,-0.00323796272277832,0.117346024884784
0.239621269,-0.0450887680053711,-0.073178768157959,-0.0356877446174622,0.0930684921186525
0.244621269,-0.0298986434936523,-0.0424598455429077,-0.0494949817657471,0.0717392541519616
0.249621269,0.00887966156005859,-0.0237002372741699,-0.030167818069458,0.0393782539397705
0.254621269,0.0250816345214844,0.00244426727294922,-0.0128017365932465,0.0282656557074799
0.259621269,0.0340681076049805,0.0304173231124878,-0.00502082705497742,0.0459462534427999
0.264621269,0.0366477966308594,0.0455391407012939,0.000277906656265259,0.0584546966959771
0.269621269,0.048253059387207,0.06644606590271,0.000924408435821533,0.082123638163009
0.274621269,0.0539665222167969,0.0970364809036255,0.0147410929203033,0.112007874575053
0.279621269,0.0624122619628906,0.118050217628479,0.03154057264328,0.137207696752485
0.284621269,0.048919677734375,0.12963080406189,0.0170275866985321,0.139596629401082
0.289621269,0.0498008728027344,0.130222082138062,0.0361120998859406,0.144020836570471
0.294621269,0.0460071563720703,0.13896119594574,0.0483595132827759,0.154160678971849
0.299621269,0.0388622283935547,0.154154658317566,0.0609081983566284,0.17024611626633
0.304621269,0.0187492370605469,0.158075213432312,0.0810517966747284,0.178630066719534
0.309621269,0.0163354873657227,0.165178298950195,0.124616116285324,0.207556968154753
0.314621269,0.0161418914794922,0.158161997795105,0.13345193862915,0.207569742811791
0.319621269,0.0159330368041992,0.157558441162109,0.173368960618973,0.234809115132571
0.324621269,0.0256032943725586,0.153427243232727,0.211587578058243,0.26261140652545
0.329621269,0.0407533645629883,0.146889448165894,0.22954922914505,0.275554341839811
0.334621269,0.0593557357788086,0.144996762275696,0.2194444835186,0.269635023294497
0.339621269,0.0751953125,0.114586591720581,0.247429922223091,0.282853298434784
0.344621269,0.0751104354858398,0.101383328437805,0.229617968201637,0.262001084205865
0.349621269,0.0778408050537109,0.0910544395446777,0.237845748662949,0.266309410365544
0.354621269,0.0665159225463867,0.0934032201766968,0.226026773452759,0.253449465986887
0.359621269,0.0537405014038086,0.0727168321609497,0.203763633966446,0.22292464578388
0.364621269,0.0434131622314453,0.0687850713729858,0.189917385578156,0.206602763881712
0.369621269,0.0321788787841797,0.0696854591369629,0.163917034864426,0.180998170636285
0.374621269,0.0263786315917969,0.073275089263916,0.176950395107269,0.193330062949116
0.379621269,0.0150547027587891,0.0754594802856445,0.166695147752762,0.183597520474679
0.384621269,0.00899982452392578,0.0815740823745728,0.161039501428604,0.180745812612875
0.389621269,-0.000754356384277344,0.0728081464767456,0.149025529623032,0.165862002057008
0.394621269,-0.00979518890380859,0.0792859792709351,0.130784898996353,0.153254370378462
0.399621269,-0.0168294906616211,0.0804930925369263,0.135633796453476,0.158615561791618
0.404621269,-0.0414037704467773,0.0808348655700684,0.125506997108459,0.154921121936692
0.409621269,-0.0312137603759766,0.0831371545791626,0.128644406795502,0.156318484857342
0.414621269,-0.0223779678344727,0.0917916297912598,0.140159517526627,0.169030077493425
0.419621269,-0.0183124542236328,0.0745645761489868,0.14198961853981,0.161419558198663
0.424621269,-0.0298957824707031,0.0815612077713013,0.147116273641586,0.170848431051722
0.429621269,-0.0260648727416992,0.0808911323547363,0.161269873380661,0.182292964606117
0.434621269,-0.0234222412109375,0.0590790510177612,0.169188603758812,0.180731068979185
0.439621269,-0.0118246078491211,0.0505410432815552,0.157259613275528,0.16560436097622
0.444621269,-0.0164918899536133,0.046798586845398,0.164934292435646,0.172236497253676
0.449621269,0.00427627563476563,0.0390539169311523,0.154456987977028,0.159375205398787
0.454621269,0.000771522521972656,0.0331434011459351,0.144882902503014,0.148627506620477
0.459621269,-0.00638580322265625,0.0331394672393799,0.157679632306099,0.161250951054234
0.464621269,-0.0226554870605469,0.0239526033401489,0.16309866309166,0.1663976328047
0.469621269,-0.03515625,0.0228294134140015,0.15438948571682,0.15997892777111
0.474621269,-0.067713737487793,0.0201551914215088,0.123935088515282,0.142657941072673
0.479621269,-0.0999612808227539,0.0161924362182617,0.094877302646637,0.138766549326232
0.484621269,-0.113537788391113,0.0113551616668701,0.0775306224822998,0.137952044246248
0.489621269,-0.119179725646973,0.0167175531387329,0.0197834074497223,0.121961743176111
0.494621269,-0.137380599975586,0.0137581825256348,-0.0153165757656097,0.138914773617655
0.499621269,-0.152203559875488,0.0100282430648804,-0.0605284869670868,0.164104195657102
0.504621269,-0.135193824768066,-0.00666153430938721,-0.0991948544979096,0.167813484123402
0.509621269,-0.125602722167969,-0.0205931663513184,-0.124573916196823,0.178097678011225
0.514621269,-0.105610847473145,-0.0359318256378174,-0.130392014980316,0.17160077146764
0.519621269,-0.0642843246459961,-0.0544689893722534,-0.125184088945389,0.15089864586375
0.524621269,-0.0486793518066406,-0.0599919557571411,-0.110058277845383,0.134467611602843
0.529621269,-0.0848388671875,-0.0646114349365234,-0.128201574087143,0.166757052350526
0.534621269,-0.101058959960938,-0.0533908605575562,-0.136216223239899,0.177815513533563
0.539621269,-0.107769966125488,-0.0510629415512085,-0.144071340560913,0.187024973652102
0.544621269,-0.160357475280762,-0.0204293727874756,-0.124789267778397,0.204216161220355
0.549621269,-0.351616859436035,0.113008618354797,-0.131967514753342,0.392199934487876
0.554621269,-0.407780647277832,0.19280993938446,-0.155737012624741,0.477194662712237
0.559621269,-0.379759788513184,0.211683034896851,-0.147571235895157,0.45913448345593
0.564621269,-0.31285572052002,0.206840634346008,-0.143628478050232,0.401610370366336
0.569621269,-0.197193145751953,0.190041065216064,-0.138820707798004,0.307037346447539
0.574621269,-0.0980758666992188,0.169143557548523,-0.168708354234695,0.258245866331976
0.579621269,0.00482463836669922,0.172330617904663,-0.136747628450394,0.220047796829642
0.584621269,0.102027893066406,0.139165639877319,-0.124476104974747,0.2127699861252
0.589621269,0.194098472595215,0.11463737487793,-0.126485228538513,0.258484927647896
0.594621269,0.262188911437988,0.103390574455261,-0.131610691547394,0.311053066689286
0.599621269,0.33199405670166,0.0994824171066284,-0.124087601900101,0.368122992957408
0.604621269,0.355498313903809,0.0974513292312622,-0.104350715875626,0.383099053328439
0.609621269,0.357078552246094,0.087981104850769,-0.121735543012619,0.387382639927896
0.614621269,0.346759796142578,0.086551308631897,-0.12656843662262,0.379147800199118
0.619621269,0.32460880279541,0.0983309745788574,-0.122507750988007,0.360621691618844
0.624621269,0.26365852355957,0.0998436212539673,-0.126881122589111,0.309165627164779
0.629621269,0.21723747253418,0.0980277061462402,-0.146605253219605,0.279811813397713
0.634621269,0.162035942077637,0.126644730567932,-0.133869111537933,0.245388413193384
0.639621269,0.100800514221191,0.110907077789307,-0.130854159593582,0.19895711762579
0.644621269,0.0343685150146484,0.122473955154419,-0.123047292232513,0.176979379141278
0.649621269,-0.0184974670410156,0.13417649269104,-0.139124870300293,0.194168012334358
0.654621269,-0.0469684600830078,0.138461470603943,-0.139248192310333,0.2019100644992
0.659621269,-0.088465690612793,0.139543533325195,-0.121735572814941,0.205227010398388
0.664621269,-0.105568885803223,0.119243741035461,-0.129568517208099,0.205309181668457
0.669621269,-0.109086036682129,0.118467092514038,-0.127603113651276,0.205467199380448
0.674621269,-0.0979461669921875,0.123627185821533,-0.12766644358635,0.202918342001407
0.679621269,-0.0839929580688477,0.126200437545776,-0.129475712776184,0.199362302456612
0.684621269,-0.0760984420776367,0.112346172332764,-0.119565010070801,0.180854712290549
0.689621269,-0.0735502243041992,0.0931710004806519,-0.121179282665253,0.169631628457163
0.694621269,-0.0482311248779297,0.0951710939407349,-0.102650612592697,0.148057174073135
0.699621269,-0.0450525283813477,0.0908703804016113,-0.105965614318848,0.14668288163878
0.704621269,-0.056025505065918,0.0853443145751953,-0.0969652831554413,0.140800480771963
0.709621269,-0.0619182586669922,0.0845907926559448,-0.089490681886673,0.137833432457642
0.714621269,-0.0703802108764648,0.0791984796524048,-0.0906870663166046,0.139462960170005
0.719621269,-0.0936164855957031,0.0834434032440186,-0.0868396162986755,0.152538411159732
0.724621269,-0.105524063110352,0.0926138162612915,-0.0890036523342133,0.166235667011106
0.729621269,-0.123719215393066,0.0868570804595947,-0.0811444818973541,0.171566382563224
0.734621269,-0.135893821716309,0.0841439962387085,-0.0742666721343994,0.176246649538657
0.739621269,-0.135829925537109,0.0866168737411499,-0.0697115659713745,0.17553334132947
0.744621269,-0.142943382263184,0.0879937410354614,-0.0684724152088165,0.181284805316891
0.749621269,-0.111323356628418,0.0727684497833252,-0.0764492452144623,0.153403468372613
0.754621269,-0.0944833755493164,0.0664588212966919,-0.0666203200817108,0.133349729025328
0.759621269,-0.0524816513061523,0.0612601041793823,-0.0601356029510498,0.100615181906985
0.764621269,-0.0117025375366211,0.0596053600311279,-0.0570080280303955,0.0833046432628504
0.769621269,0.0382137298583984,0.0544081926345825,-0.0602433681488037,0.0897206998488353
0.774621269,0.0876731872558594,0.0465378761291504,-0.053288459777832,0.112658872813937
0.779621269,0.127318382263184,0.0195646286010742,-0.0290547609329224,0.132048946558772
0.784621269,0.182794570922852,0.0109914541244507,-0.0315088331699371,0.185815698449755
0.789621269,0.211047172546387,0.00137698650360107,-0.0201399922370911,0.212010434693591
0.794621269,0.23630428314209,-0.00996935367584229,-0.0154400169849396,0.237017924150276
0.799621269,0.251114845275879,-0.00998556613922119,-0.0243130624294281,0.252486637376608
0.804621269,0.238154411315918,-0.0140818357467651,-0.00146767497062683,0.238574885092815
0.809621269,0.21906852722168,-0.00599384307861328,-0.0243367254734039,0.220497668878142
0.814621269,0.180161476135254,-0.0188642740249634,0.00616461038589478,0.181251264102992
0.819621269,0.123284339904785,-0.012033224105835,-0.00474750995635986,0.123961146327894
0.824621269,0.0746774673461914,-0.00122976303100586,-0.00257295370101929,0.0747318977217995
0.829621269,0.0116977691650391,0.00759530067443848,-0.00243544578552246,0.0141583117619257
0.834621269,-0.0533084869384766,0.0333904027938843,-0.00461134314537048,0.0630712158120637
0.839621269,-0.113203048706055,0.0236450433731079,-0.00405451655387878,0.115717144006181
0.844621269,-0.163101196289063,0.0252608060836792,-0.00353485345840454,0.165083626516663
0.849621269,-0.209621429443359,0.0283572673797607,-0.00119131803512573,0.211534152168829
0.854621269,-0.243777275085449,0.0372911691665649,-0.0113221108913422,0.246872803971867
0.859621269,-0.256167411804199,0.0345184803009033,-0.00710362195968628,0.258580219269944
0.864621269,-0.266969680786133,0.035794734954834,-0.0101988613605499,0.269551646781444
0.869621269,-0.229736328125,-0.0164949893951416,0.302850216627121,0.380485372710434
0.874621269,-0.174424171447754,-0.078176736831665,0.863265991210938,0.884173945187419
0.879621269,-0.126063346862793,-0.131321549415588,1.29466450214386,1.30739951425514
0.884621269,-0.116542816162109,-0.172779202461243,1.56329870223999,1.57712958035393
0.889621269,-0.113354682922363,-0.17769193649292,1.52066957950592,1.53520672173807
0.894621269,-0.125302314758301,-0.142853260040283,1.21964335441589,1.23435717519638
0.899621269,-0.0951786041259766,-0.108259081840515,0.82305771112442,0.835585418329982
0.904621269,-0.0737152099609375,-0.0771450996398926,0.464346528053284,0.476448314818274
0.909621269,-0.0417270660400391,-0.0506745576858521,0.167666360735893,0.180058510932933
0.914621269,-0.00778961181640625,-0.0289103984832764,-0.0563162565231323,0.0637809528110969
0.919621269,0.0126943588256836,-0.0474593639373779,-0.135390400886536,0.144028117475556
0.924621269,0.0146522521972656,-0.0447139739990234,-0.158608138561249,0.165440531862969
0.929621269,-0.0140266418457031,-0.0494775772094727,-0.161920487880707,0.169891205550826
0.934621269,-0.0154132843017578,-0.055065393447876,-0.166276842355728,0.175834453939858
0.939621269,-0.0145177841186523,-0.0629488229751587,-0.168243288993835,0.180219656700197
0.944621269,0.00536346435546875,-0.0713895559310913,-0.142788201570511,0.159730103467291
0.949621269,0.0630292892456055,-0.0697052478790283,-0.120738595724106,0.153001050264735
0.954621269,0.134232521057129,-0.0690815448760986,-0.102320820093155,0.182373736531214
0.959621269,0.151383399963379,-0.0651628971099854,-0.0780378580093384,0.182354172496613
0.964621269,0.162971496582031,-0.0736057758331299,-0.0550388693809509,0.187101031736646
0.969621269,0.138568878173828,-0.0784851312637329,-0.0453615188598633,0.165586585269195
0.974621269,0.107260704040527,-0.0790337324142456,-0.0480026304721832,0.141617237732012
0.979621269,0.0525455474853516,-0.0737390518188477,-0.0184445381164551,0.0924049961312017
0.984621269,-0.00556468963623047,-0.0854002237319946,-0.0115208327770233,0.0863533066656885
0.989621269,-0.0149011611938477,-0.0793212652206421,-0.00279635190963745,0.080757212093602
0.994621269,-0.0318479537963867,-0.0748202800750732,0.029421329498291,0.0864753207624938
0.999621269,-0.0230474472045898,-0.0720762014389038,0.0200883746147156,0.0782924417244152
1.004621269,-0.0269575119018555,-0.0790059566497803,0.0117565095424652,0.084302219132759
1.009621269,-0.033839225769043,-0.087274432182312,0.0108119249343872,0.0942274770657692
1.014621269,-0.0294599533081055,-0.0734695196151733,-0.0160129070281982,0.0807593483931973
1.019621269,-0.0359201431274414,-0.0900399684906006,-0.0343566536903381,0.102848589007735
1.024621269,-0.0697898864746094,-0.0882728099822998,-0.038134902715683,0.118814931895973
1.029621269,-0.0899314880371094,-0.0949583053588867,-0.0513684749603272,0.140511467563861
1.034621269,-0.115619659423828,-0.0929925441741943,-0.0576365292072296,0.159177537411305
1.039621269,-0.116086959838867,-0.0937761068344116,-0.0811041295528412,0.169847049689342
1.044621269,-0.127773284912109,-0.111699461936951,-0.111045986413956,0.202815170125126
1.049621269,-0.108049392700195,-0.10107946395874,-0.131923258304596,0.19823086384004
1.054621269,-0.101587295532227,-0.117433667182922,-0.158689916133881,0.222020571758924
1.059621269,-0.0993413925170898,-0.122382283210754,-0.176833361387253,0.23688852486059
1.064621269,-0.0845813751220703,-0.120550155639648,-0.181903928518295,0.234041424223732
1.069621269,-0.0547056198120117,-0.131235837936401,-0.184454202651978,0.232892470625099
1.074621269,-0.0402498245239258,-0.132220029830933,-0.193013250827789,0.237394818093847
1.079621269,-0.00647926330566406,-0.129331350326538,-0.1825812458992,0.22384032341018
1.084621269,0.00633525848388672,-0.119292974472046,-0.165419906377792,0.204045815160428
1.089621269,0.00926685333251953,-0.131683468818665,-0.154466599225998,0.203190405303124
1.094621269,0.0116662979125977,-0.139687776565552,-0.136800438165665,0.195865099778217
1.099621269,0.022273063659668,-0.146032214164734,-0.114370673894882,0.18682116578646
1.104621269,0.0185260772705078,-0.154704451560974,-0.0722746849060059,0.171756551403657
1.109621269,0.0302057266235352,-0.151842713356018,-0.0353475511074066,0.158801904552384
1.114621269,0.0461835861206055,-0.172393918037415,-0.0254260897636414,0.180274991731851
1.119621269,0.0537357330322266,-0.165711641311646,0.00458073616027832,0.174266635402421
1.124621269,0.0565395355224609,-0.174990057945251,0.0328033268451691,0.186800154466984
1.129621269,0.0481758117675781,-0.178374767303467,0.0433782041072845,0.189789712686447
1.134621269,0.0697011947631836,-0.173656344413757,0.0602980852127075,0.196597664245748
1.139621269,0.0579099655151367,-0.182654321193695,0.0574022233486176,0.200027949052272
1.144621269,0.0442276000976563,-0.178390502929688,0.0633452236652374,0.194401310456242
1.149621269,0.0272665023803711,-0.185189664363861,0.066441684961319,0.198628224177123
1.154621269,0.0105352401733398,-0.196576833724976,0.0496865510940552,0.203032500360087
1.159621269,-0.0149717330932617,-0.193642199039459,0.0412695705890656,0.19855636856384
1.164621269,-0.0185976028442383,-0.186474204063416,0.026447981595993,0.189256427481706
1.169621269,-0.0390729904174805,-0.183488667011261,0.0194167792797089,0.188604880157781
1.174621269,-0.0514287948608398,-0.188705801963806,-0.00636264681816101,0.195691808490223
1.179621269,-0.0720634460449219,-0.193016350269318,-0.0171696841716766,0.206744406893421
1.184621269,-0.0708951950073242,-0.191091477870941,-0.0464853048324585,0.209052541614288
1.189621269,-0.0828437805175781,-0.202208161354065,-0.0478857159614563,0.223705776147549
1.194621269,-0.0877819061279297,-0.200206100940704,-0.0597434043884277,0.226621755939829
1.199621269,-0.0924310684204102,-0.192843556404114,-0.05650794506073,0.221190613523521
1.204621269,-0.0925588607788086,-0.196911633014679,-0.0646649897098541,0.226986552067196
1.209621269,-0.104660987854004,-0.198948204517365,-0.0514661073684692,0.230614549989635
1.214621269,-0.0888185501098633,-0.193979144096375,-0.0396376550197601,0.216997204782564
1.219621269,-0.106466293334961,-0.19709038734436,-0.0313096344470978,0.226185732550147
1.224621269,-0.0854606628417969,-0.201300024986267,-0.0221901834011078,0.219812713900279
1.229621269,-0.0691156387329102,-0.181421041488647,-0.0028531551361084,0.194161546930679
1.234621269,-0.0457086563110352,-0.185662567615509,0.00514101982116699,0.191275456763657
1.239621269,-0.0384225845336914,-0.193111002445221,0.0165932178497314,0.197594253829041
1.244621269,-0.0223731994628906,-0.194859027862549,0.0421834290027618,0.200624132337501
1.249621269,-0.0236196517944336,-0.198379933834076,0.0690097510814667,0.211364216089736
1.254621269,0.0233545303344727,-0.220077335834503,0.268034726381302,0.347594709944579
1.259621269,0.0280313491821289,-0.234555125236511,0.453491806983948,0.511328350781816
1.264621269,0.034541130065918,-0.226528108119965,0.564258277416229,0.609011885817815
1.269621269,0.0254859924316406,-0.227890729904175,0.611913561820984,0.653469148259446
1.274621269,0.0184001922607422,-0.235543727874756,0.575678467750549,0.622274146215307
1.279621269,0.0168933868408203,-0.215190768241882,0.495133101940155,0.54013816926076
1.284621269,-0.00772571563720703,-0.193955361843109,0.346992433071137,0.397595419589343
1.289621269,-0.00666236877441406,-0.184996008872986,0.198104843497276,0.27113361922436
1.294621269,-0.0191469192504883,-0.164689421653748,0.034018874168396,0.169252751590973
1.299621269,-0.0110998153686523,-0.156010270118713,-0.0585010647773743,0.166987379354904
1.304621269,-0.0220766067504883,-0.160462498664856,-0.0868655443191528,0.18379666164881
1.309621269,-0.0149784088134766,-0.160196423530579,-0.115355014801025,0.197974812242156
1.314621269,-0.0317173004150391,-0.1625936627388,-0.122246891260147,0.205881006241972
1.319621269,-0.0258722305297852,-0.163479566574097,-0.13763439655304,0.215263020777746
1.324621269,-0.0201168060302734,-0.160364806652069,-0.128612220287323,0.206549413711707
1.329621269,-0.0179309844970703,-0.15097188949585,-0.103874862194061,0.184130439142518
1.334621269,-0.0221672058105469,-0.141307175159454,-0.123434364795685,0.188931588617431
1.339621269,-0.0229272842407227,-0.139307022094727,-0.103381186723709,0.174985075180593
1.344621269,-0.0296106338500977,-0.139263510704041,-0.0982862114906311,0.173006631144011
1.349621269,-0.0308198928833008,-0.139585018157959,-0.0827954411506653,0.165193608129459
1.354621269,-0.0307178497314453,-0.129845261573792,-0.0687239766120911,0.150087851629202
1.359621269,-0.0329713821411133,-0.138927757740021,-0.0637125670909882,0.156356404142232
1.364621269,-0.058013916015625,-0.124607861042023,-0.0313749611377716,0.140986246390677
1.369621269,-0.0516548156738281,-0.122795641422272,-0.0292662084102631,0.136394649782597
1.374621269,-0.0579147338867188,-0.130189538002014,-0.0189822018146515,0.143748934577198
1.379621269,-0.0400657653808594,-0.126973330974579,-0.0183955729007721,0.134409409777298
1.384621269,-0.0455226898193359,-0.120389997959137,-0.0174818634986877,0.129891040677851
1.389621269,-0.0415563583374023,-0.121405124664307,-0.0227278470993042,0.130317651324722
1.394621269,-0.0211257934570313,-0.126179039478302,-0.0242070555686951,0.130205340490173
1.399621269,-0.00930690765380859,-0.119837522506714,-0.000712931156158447,0.120200493349475
1.404621269,0.00328731536865234,-0.113510370254517,-0.0321674942970276,0.118026091551825
1.409621269,0.0199956893920898,-0.113222658634186,-0.0281906425952911,0.118380363035403
1.414621269,0.0217266082763672,-0.113821625709534,-0.0296457707881928,0.11960886134389
1.419621269,0.0370502471923828,-0.110856115818024,-0.0293149650096893,0.120503802449529
1.424621269,0.032536506652832,-0.131170570850372,-0.0406518876552582,0.141127314479934
1.429621269,0.0381746292114258,-0.129036247730255,-0.0281495451927185,0.137477461564762
1.434621269,0.0433120727539063,-0.118591487407684,-0.0476577281951904,0.1349486405583
1.439621269,0.0320320129394531,-0.117271721363068,-0.0559337735176086,0.133818135932053
1.444621269,0.0300655364990234,-0.108633935451508,-0.0631022155284882,0.129178783169916
1.449621269,0.0394191741943359,-0.11130690574646,-0.0731679797172546,0.138912388997236
1.454621269,0.0128335952758789,-0.110811114311218,-0.0667142271995544,0.129979199618372
1.459621269,0.00476360321044922,-0.11266815662384,-0.071187287569046,0.133358296869744
1.464621269,-0.0142822265625,-0.10490757226944,-0.07150998711586,0.127762510042503
1.469621269,-0.0299501419067383,-0.109219074249268,-0.0871886014938355,0.142925398059798
1.474621269,-0.0582456588745117,-0.100846946239471,-0.0733092129230499,0.137611424100435
1.479621269,-0.0472946166992188,-0.0951045155525208,-0.0573482215404511,0.12070819425813
1.484621269,-0.0715236663818359,-0.0987195372581482,0.037363201379776,0.127503688991765
1.489621269,-0.0624580383300781,-0.0744215250015259,0.144512191414833,0.174135991119331
1.494621269,-0.0659236907958984,-0.0739518404006958,0.234137207269669,0.254234221801163
1.499621269,-0.0679397583007813,-0.0612709522247314,0.273987025022507,0.288857802777037
1.504621269,-0.0599241256713867,-0.0431632995605469,0.294396042823792,0.303517711668926
1.509621269,-0.0428705215454102,-0.0648579597473145,0.277234196662903,0.287929221093457
1.514621269,-0.0312814712524414,-0.0636419057846069,0.252171635627747,0.261952966066023
1.519621269,-0.032867431640625,-0.054617166519165,0.19100022315979,0.201356371114308
1.524621269,-0.0195484161376953,-0.0753775835037231,0.12783108651638,0.149682020791782
1.529621269,-0.0139122009277344,-0.078096866607666,0.050028532743454,0.0937844549861654
1.534621269,0.00519657135009766,-0.0810366868972778,-0.0338840484619141,0.0879890772610637
1.539621269,0.0161476135253906,-0.0859339237213135,-0.0420344471931458,0.0970169027517332
1.544621269,0.00632572174072266,-0.0902178883552551,-0.0579916536808014,0.107435161988319
1.549621269,-0.00722980499267578,-0.0805543661117554,-0.0555870532989502,0.0981386594281742
1.554621269,-0.00528717041015625,-0.0741106271743774,-0.0621315240859985,0.0968538358371759
1.559621269,0.00567722320556641,-0.0875440239906311,-0.0528864860534668,0.102436162593498
1.564621269,-0.00201034545898438,-0.0829496383666992,-0.0535426139831543,0.0987496607902007
1.569621269,-0.0113363265991211,-0.0720930099487305,-0.0582282543182373,0.0933618979304674
1.574621269,-0.0208330154418945,-0.0648032426834106,-0.0566106736660004,0.0885338532291779
1.579621269,-0.0104894638061523,-0.0563387870788574,-0.0445301532745361,0.0725742539135684
1.584621269,-0.00422573089599609,-0.0573616027832031,-0.0485726594924927,0.0752828899925939
1.589621269,-0.00985240936279297,-0.0513310432434082,-0.0584708750247955,0.0784269672808655
1.594621269,-0.00190639495849609,-0.0597937107086182,-0.0528731048107147,0.079840386987843
1.599621269,-0.00631904602050781,-0.0498650074005127,-0.0516570210456848,0.0720756347802557
1.604621269,-0.0100784301757813,-0.0585880279541016,-0.0474105775356293,0.0760387706148686
1.609621269,0.00536346435546875,-0.0590180158615112,-0.05672687292099,0.0820355475237176
1.614621269,0.0122489929199219,-0.0484976768493652,-0.0534885823726654,0.0732331272825022
1.619621269,0.0264530181884766,-0.0599280595779419,-0.0535767674446106,0.0846262636884739
1.624621269,0.0208730697631836,-0.0525048971176147,-0.0587026178836823,0.0814766629720907
1.629621269,0.029850959777832,-0.0569672584533691,-0.0536181032657623,0.0837332032897862
1.634621269,0.0261707305908203,-0.052340030670166,-0.0611712336540222,0.0846540357984556
1.639621269,0.0274429321289063,-0.04775071144104,-0.0547055006027222,0.0776269074686842
1.644621269,0.0139532089233398,-0.0326354503631592,-0.0584747195243835,0.0684036364758477
1.649621269,0.00313186645507813,-0.0357773303985596,-0.0519664585590363,0.0631691283231625
1.654621269,-0.006195068359375,-0.0327887535095215,-0.0756675004959106,0.0826985602050249
1.659621269,-0.0217990875244141,-0.030053973197937,-0.0629347860813141,0.0730700268302958
1.664621269,-0.0274600982666016,-0.0273430347442627,-0.0564289093017578,0.0684537825895938
1.669621269,-0.0298480987548828,-0.0172429084777832,-0.0625579655170441,0.0714263672720804
1.674621269,-0.0285558700561523,-0.0164439678192139,-0.0753946006298065,0.0822811497029011
1.679621269,-0.0400123596191406,-0.00236880779266357,-0.0590257048606873,0.0713486790834349
1.684621269,-0.0408439636230469,-0.00261223316192627,-0.0663027167320252,0.0779172854543856
1.689621269,-0.0584144592285156,0.00603616237640381,-0.0680057108402252,0.0898524402010238
1.694621269,-0.0449972152709961,-0.0154013633728027,-0.0664359331130981,0.081704862673488
1.699621269,-0.0262537002563477,-0.00338184833526611,-0.0452670156955719,0.0524385009825419
1.704621269,-0.0269412994384766,0.00114357471466064,-0.0272346436977386,0.0383258032649603
1.709621269,-0.0212421417236328,0.015072226524353,0.0667426884174347,0.0716448676081901
1.714621269,-0.00761699676513672,0.0312087535858154,0.163319319486618,0.166448806116692
1.719621269,-0.0144977569580078,0.0376352071762085,0.240820914506912,0.244174746114243
1.724621269,0.0151643753051758,0.0480083227157593,0.28661036491394,0.290998726121746
1.729621269,0.00609111785888672,0.0550060272216797,0.288775205612183,0.294030413603493
1.734621269,0.0233678817749023,0.0591030120849609,0.264068305492401,0.271608714701478
1.739621269,0.0343456268310547,0.040080189704895,0.217573955655098,0.223884947838404
1.744621269,0.0493192672729492,0.0456434488296509,0.157038107514381,0.170811831431854
1.749621269,0.0465250015258789,0.047609806060791,0.0739519596099854,0.0994995564326097
1.754621269,0.0582656860351563,0.0345612764358521,0.0101021826267242,0.0684939858078538
1.759621269,0.065730094909668,0.0402095317840576,-0.0396953523159027,0.0866774066213955
1.764621269,0.05157470703125,0.0434178113937378,-0.0402547717094421,0.0785207195392449
1.769621269,0.0345420837402344,0.0437551736831665,-0.0485373735427856,0.0739158129468474
1.774621269,0.000919342041015625,0.0483301877975464,-0.0400160253047943,0.0627529642608891
1.779621269,-0.00850677490234375,0.0547020435333252,-0.0274008512496948,0.0617696157926278
1.784621269,-0.0261592864990234,0.067373514175415,-0.0329712629318237,0.0794393030042579
1.789621269,-0.0444908142089844,0.0599212646484375,-0.018988162279129,0.0770100046278728
1.794621269,-0.0499868392944336,0.056612491607666,-0.0123372375965118,0.0765236286397108
1.799621269,-0.0531606674194336,0.0652577877044678,-0.00850087404251099,0.0845984649745352
1.804621269,-0.0584020614624023,0.0671917200088501,0.00133633613586426,0.0890354638055755
1.809621269,-0.0402297973632813,0.0714129209518433,0.00107023119926453,0.0819718687696259
1.814621269,-0.0453939437866211,0.0736631155014038,0.0220026075839996,0.0892803419481106
1.819621269,-0.0323934555053711,0.0689277648925781,0.032843679189682,0.0829402194075934
1.824621269,-0.0183858871459961,0.067705512046814,0.0390393733978272,0.0802879186612877
1.829621269,0.000325202941894531,0.0700832605361939,0.0155814290046692,0.0717951954810696
1.834621269,0.0125532150268555,0.0701055526733398,0.00806230306625366,0.0716754661922545
1.839621269,0.0153779983520508,0.0609316825866699,0.00670069456100464,0.0631985133033859
1.844621269,0.0392951965332031,0.071805477142334,-0.00149238109588623,0.0818679804292048
1.849621269,0.0521888732910156,0.0696547031402588,-0.0142478048801422,0.0881955560606421
1.854621269,0.0541877746582031,0.0719146728515625,-0.0271254777908325,0.09404162184446
1.859621269,0.0464239120483398,0.0716211795806885,-0.0290508568286896,0.0901594435258018
1.864621269,0.0406312942504883,0.0760021209716797,-0.029906153678894,0.0912228178282672
1.869621269,0.0401983261108398,0.0763108730316162,-0.0372092127799988,0.093934979004991
1.874621269,0.0359897613525391,0.0778003931045532,-0.0418834984302521,0.095406454342422
1.879621269,0.0235128402709961,0.0856605768203735,-0.0464897453784943,0.100259086890744
1.884621269,0.00308704376220703,0.0938751697540283,-0.0642325282096863,0.113788817621705
1.889621269,-0.0150432586669922,0.0918213129043579,-0.0587337911128998,0.110032319585183
1.894621269,-0.0259304046630859,0.0952891111373901,-0.0651123821735382,0.118287881457308
1.899621269,-0.0266304016113281,0.0950864553451538,-0.0683072209358215,0.120068683311102
1.904621269,-0.0304899215698242,0.0945460796356201,-0.0866104662418366,0.131795179556869
1.909621269,-0.0257349014282227,0.0915342569351196,-0.0731048583984375,0.119938007594092
1.914621269,-0.0236530303955078,0.0942809581756592,-0.0527163147926331,0.110577460482357
1.919621269,-0.0174589157104492,0.100389957427979,-0.0774699747562408,0.128002165133675
1.924621269,-0.015655517578125,0.104631662368774,-0.0595947206020355,0.121426565150822
1.929621269,0.0121097564697266,0.0890548229217529,-0.0644446313381195,0.110591673265608
1.934621269,0.0110082626342773,0.0846374034881592,-0.0485906600952148,0.0982126476780429
1.939621269,0.0219297409057617,0.0840868949890137,-0.0553376972675324,0.103023202163204
1.944621269,0.0296173095703125,0.0838141441345215,-0.0432164072990418,0.098841558279009
1.949621269,0.0269184112548828,0.0716803073883057,-0.0424596071243286,0.0875527587739035
1.954621269,0.0495624542236328,0.102617383003235,-0.0333435833454132,0.118737351803949
1.959621269,0.0389070510864258,0.103464722633362,0.0780342519283295,0.13530725009346
1.964621269,0.0347509384155273,0.108954906463623,0.156266540288925,0.193644083248435
1.969621269,0.0272035598754883,0.110224604606628,0.20562157034874,0.234882369119669
1.974621269,0.0202808380126953,0.127461314201355,0.232415124773979,0.265846740119449
1.979621269,0.0121526718139648,0.132870435714722,0.211818099021912,0.250338065808008
1.984621269,-0.0125398635864258,0.127630591392517,0.20125412940979,0.238642076429247
1.989621269,-0.00489902496337891,0.129019498825073,0.146217107772827,0.195062744080246
1.994621269,-0.0140151977539063,0.134385585784912,0.10719358921051,0.17247138024225
1.999621269,-0.0141525268554688,0.123130083084106,0.0396042764186859,0.130114603666696
2.004621269,0.00177288055419922,0.119387626647949,-0.019795149564743,0.12103055997714
2.009621269,0.00739574432373047,0.116004824638367,-0.0590625703334808,0.130384828825587
2.014621269,-0.0115594863891602,0.105790376663208,-0.0977146029472351,0.144476188866056
2.019621269,-0.0103721618652344,0.114173054695129,-0.118880957365036,0.165153716834358
2.024621269,-0.00843429565429688,0.117061376571655,-0.117534756660461,0.166099133806498
2.029621269,-0.0139579772949219,0.105931997299194,-0.115904480218887,0.157639657817354
2.034621269,-0.0160207748413086,0.0992940664291382,-0.0915606021881104,0.136012208009426
2.039621269,-0.0117311477661133,0.113650679588318,-0.0606094300746918,0.129335222630093
2.044621269,0.00632858276367188,0.122649788856506,-0.00648844242095947,0.122984232938179
2.049621269,-0.00464344024658203,0.115877151489258,0.0175853669643402,0.117295869091194
2.054621269,0.0148983001708984,0.121415257453918,0.056957483291626,0.134936203420355
2.059621269,0.0173635482788086,0.117168188095093,0.0754787623882294,0.140452556694338
2.064621269,0.0282182693481445,0.121453166007996,0.0802121162414551,0.148260331344237
2.069621269,0.0214996337890625,0.121299147605896,0.0820031464099884,0.147987274737116
2.074621269,0.0360746383666992,0.106285333633423,0.0790224075317383,0.137267959010718
2.079621269,0.0474262237548828,0.110809445381165,0.0459813475608826,0.12900489994122
2.084621269,0.0414800643920898,0.107191205024719,0.0240289866924286,0.117422069382583
2.089621269,0.0384712219238281,0.10401725769043,-0.0155423879623413,0.111987457500033
2.094621269,0.0492153167724609,0.118140459060669,-0.0514848232269287,0.137949275078876
2.099621269,0.038691520690918,0.0983457565307617,-0.0585619509220123,0.120823936770723
2.104621269,0.0234222412109375,0.115044474601746,-0.0836086571216583,0.144132716846045
2.109621269,0.0246915817260742,0.113068342208862,-0.0845867097377777,0.143349348384493
2.114621269,0.0215482711791992,0.125880241394043,-0.0752643048763275,0.148239261846353
2.119621269,0.00482940673828125,0.121252655982971,-0.0732749104499817,0.141755924933744
2.124621269,-0.00421714782714844,0.109817385673523,-0.0836867690086365,0.138134419458252
2.129621269,-0.00963878631591797,0.112909913063049,-0.0917420089244843,0.145801751947806
2.134621269,-0.0172300338745117,0.122584819793701,-0.0873174667358398,0.151486805063463
2.139621269,-0.00182533264160156,0.130213022232056,-0.0741608440876007,0.149861915755284
2.144621269,-0.00420284271240234,0.136868476867676,-0.0283574759960175,0.139838443540421
2.149621269,-0.00800609588623047,0.136303424835205,0.022840142250061,0.138435520337625
2.154621269,0.00316143035888672,0.140665650367737,0.0605112612247467,0.15316145915439
2.159621269,0.00487232208251953,0.144913554191589,0.0924580693244934,0.17196561369683
2.164621269,0.0000553131103515625,0.13549530506134,0.112969100475311,0.176411446384317
2.169621269,0.00466346740722656,0.140552878379822,0.137221172451973,0.196485393142099
2.174621269,0.0212516784667969,0.135889887809753,0.113661020994186,0.178427921413787
2.179621269,0.0218868255615234,0.140801191329956,0.109666049480438,0.17980726075924
2.184621269,0.0264482498168945,0.138618350028992,0.0596469044685364,0.153206756038419
2.189621269,0.0183601379394531,0.136434197425842,0.0592898428440094,0.149888860015869
2.194621269,0.0348472595214844,0.118927836418152,0.0178151726722717,0.125202005369735
2.199621269,0.0512075424194336,0.123180031776428,-0.0273877680301666,0.136182313340441
2.204621269,0.0551624298095703,0.117330431938171,-0.0535029172897339,0.140256501025107
2.209621269,0.0370674133300781,0.130076766014099,-0.0657742321491242,0.150400158917723
2.214621269,0.0267486572265625,0.124217748641968,-0.0720140635967255,0.146053295398688
2.219621269,0.00184249877929688,0.108909845352173,-0.0849219262599945,0.138117641074896
2.224621269,-0.00742435455322266,0.137869000434876,-0.0640110671520233,0.152185410073977
2.229621269,-0.0108861923217773,0.123906016349792,-0.0582142770290375,0.137332123412388
2.234621269,-0.0142707824707031,0.127815127372742,-0.0450034737586975,0.136255916084352
2.239621269,-0.00191783905029297,0.123335480690002,-0.0186631381511688,0.124754285013808
2.244621269,0.00220108032226563,0.122351765632629,-0.0215280950069428,0.124250787452776
2.249621269,-0.00259876251220703,0.141106128692627,0.00239148736000061,0.141150318217878
2.254621269,0.0005035400390625,0.144292116165161,0.0240826606750488,0.146288902125831
2.259621269,0.0152759552001953,0.142876029014587,0.0352415144443512,0.147948906094594
2.264621269,0.020909309387207,0.144035339355469,0.0375526547431946,0.150311609932688
2.269621269,0.0241804122924805,0.127346277236938,0.0286290943622589,0.132745590166848
2.274621269,0.0252504348754883,0.123887777328491,0.0326204597949982,0.130575113364041
2.279621269,0.0216245651245117,0.123410224914551,0.0176396369934082,0.126526132571669
2.284621269,0.0425281524658203,0.129988670349121,0.0100577175617218,0.137138090455715
2.289621269,0.0491170883178711,0.127874374389648,0.00443869829177856,0.137054901528165
2.294621269,0.0514240264892578,0.121045589447021,-0.0162243247032166,0.132512995351476
2.299621269,0.0427618026733398,0.124524354934692,-0.0226171910762787,0.133590508914203
2.304621269,0.0464754104614258,0.118147850036621,-0.0331246852874756,0.131210224530058
2.309621269,0.0322198867797852,0.120963096618652,-0.0279781520366669,0.128269126601308
2.314621269,0.0276870727539063,0.115432739257813,-0.0123661458492279,0.11934912171192
2.319621269,0.0213489532470703,0.127447128295898,-0.00700882077217102,0.129412796447002
2.324621269,-0.00117969512939453,0.112333178520203,0.00521808862686157,0.112460495846176
2.329621269,-0.00693893432617188,0.118755578994751,0.0226971209049225,0.121104069499477
2.334621269,-0.0192174911499023,0.127898454666138,0.0299619436264038,0.132759348966295
2.339621269,-0.033595085144043,0.132569551467896,0.0492551922798157,0.145359518741485
2.344621269,-0.0277824401855469,0.137079358100891,0.0453274846076965,0.14702787239458
2.349621269,-0.0177335739135742,0.119930148124695,0.0412730276584625,0.128067103055608
2.354621269,-0.00688362121582031,0.0924175977706909,0.0540538728237152,0.107285683042941
2.359621269,-0.00132656097412109,0.08582603931427,0.046030730009079,0.0973996760444377
2.364621269,0.0133447647094727,0.0794064998626709,0.0274679958820343,0.085076235009355
2.369621269,0.0191020965576172,0.0894845724105835,0.0226150453090668,0.0942540135311629
2.374621269,0.0201435089111328,0.0766997337341309,-0.0118022859096527,0.0801742106841885
2.379621269,0.0156002044677734,0.0935682058334351,-0.0201930999755859,0.0969852401602863
2.384621269,0.0149021148681641,0.0811152458190918,-0.0393215119838715,0.0913670478702984
2.389621269,0.0169429779052734,0.0753092765808106,-0.0485607981681824,0.091195958014347
2.394621269,0.00365447998046875,0.0792927742004395,-0.0378722548484802,0.0879488882910851
2.399621269,0.0001220703125,0.0834070444107056,-0.0366536974906921,0.0911056721517918
2.404621269,0.00504779815673828,0.0779920816421509,-0.0323165357112885,0.0845730663124265
2.409621269,0.0079803466796875,0.0722908973693848,-0.034408450126648,0.0804586926050687
2.414621269,0.00801372528076172,0.0637301206588745,-0.0303137004375458,0.0710258298528605
2.419621269,0.00714206695556641,0.0606909990310669,-0.00329896807670593,0.0611987718353717
2.424621269,0.0219879150390625,0.0513783693313599,0.0106252133846283,0.0568867330964218
2.429621269,0.00460433959960938,0.0555408000946045,0.0172556936740875,0.058341575077052
2.434621269,0.0124025344848633,0.0549790859222412,0.0298413336277008,0.063773254136614
2.439621269,0.00742435455322266,0.0519982576370239,0.0392182767391205,0.0655516061451168
2.444621269,0.00280284881591797,0.0394245386123657,0.0415409505367279,0.0573393475527729
2.449621269,0.0231428146362305,0.0426956415176392,0.0345955789089203,0.0596268543018413
2.454621269,0.00765895843505859,0.0572285652160645,0.0366690456867218,0.0683987370685614
2.459621269,0.0187387466430664,0.0364165306091309,0.0103080868721008,0.0422322268217244
2.464621269,0.0262441635131836,0.0492746829986572,-0.00365263223648071,0.0559472271464802
2.469621269,0.0235137939453125,0.0467933416366577,-0.00840532779693604,0.0530392766033015
2.474621269,0.0345954895019531,0.0488243103027344,-0.0113389492034912,0.0609034723103437
2.479621269,0.0357208251953125,0.0554629564285278,-0.0061609148979187,0.0662576317174576
2.484621269,0.020411491394043,0.0648293495178223,0.00369259715080261,0.0680669436184053
2.489621269,0.0136756896972656,0.0565022230148315,-0.00775662064552307,0.0586488777228705
2.494621269,0.00431251525878906,0.0581111907958984,0.00187575817108154,0.0583011728208874
2.499621269,0.00138473510742188,0.0523332357406616,0.0105847120285034,0.0534108713946116
2.504621269,-0.00554180145263672,0.0534821748733521,0.00838500261306763,0.0544184055384335
2.509621269,-0.0166177749633789,0.0458868741989136,0.0149572491645813,0.0510438534110797
2.514621269,-0.0168018341064453,0.045576810836792,0.0347423255443573,0.0597208213240854
2.519621269,-0.00671100616455078,0.0527689456939697,0.0250005424022675,0.0587760695674808
2.524621269,0.00081634521484375,0.0341802835464478,0.0137589871883392,0.0368546866934756
2.529621269,0.003631591796875,0.0392320156097412,0.0274233222007751,0.048003938466647
2.534621269,0.00514507293701172,0.0392107963562012,0.0203779637813568,0.0444884224747174
2.539621269,0.0106334686279297,0.0462616682052612,-0.00117456912994385,0.0474825464021872
2.544621269,0.0104846954345703,0.0430572032928467,-0.0131471455097198,0.046224441898318
2.549621269,0.00606918334960938,0.0543190240859985,-0.0309390723705292,0.0628061904857738
2.554621269,0.0100936889648438,0.0461723804473877,-0.0467343032360077,0.0664670322193825
2.559621269,0.0154008865356445,0.0374552011489868,-0.0376218557357788,0.0552764274189153
2.564621269,0.000639915466308594,0.0462179183959961,-0.0298857688903809,0.0550423896177504
2.569621269,0.000766754150390625,0.0446169376373291,-0.0209948122501373,0.049315729513807
2.574621269,0.00633525848388672,0.038189172744751,-0.0233213603496552,0.0451932988787559
2.579621269,0.0105314254760742,0.033531665802002,-0.00682750344276428,0.035803607880718
2.584621269,0.00619125366210938,0.0328421592712402,-0.00744175910949707,0.0342391417262448
2.589621269,0.00393486022949219,0.022673487663269,0.00379249453544617,0.0233228039189854
2.594621269,-0.00554275512695313,0.0394324064254761,0.0177753567695618,0.0436073401984861
2.599621269,0.00985813140869141,0.0294648408889771,0.000707060098648071,0.0310782807997299
2.604621269,-0.00433444976806641,0.027584433555603,0.0158476531505585,0.0321066432340065
2.609621269,-0.00694465637207031,0.0206525325775147,0.0044594407081604,0.0222405477770004
2.614621269,-0.00130558013916016,0.0260989665985107,0.0194290280342102,0.0325629809348603
2.619621269,-0.0170907974243164,0.0222965478897095,0.00608843564987183,0.0287454423006458
2.624621269,-0.0155086517333984,0.022541880607605,0.000927925109863281,0.0273772844695173
2.629621269,-0.0173864364624023,0.0137935876846313,-0.00335219502449036,0.0224452321341746
2.634621269,-0.0224342346191406,0.0126169919967651,0.0042131245136261,0.0260812919189292
2.639621269,0.00337409973144531,0.00677764415740967,-0.00418424606323242,0.00865037134693562
2.644621269,0.00888442993164063,0.00801420211791992,-0.00433096289634705,0.0127246913678344
2.649621269,0.0111837387084961,0.0156930685043335,-0.00742062926292419,0.0206497978014165
2.654621269,0.0110588073730469,0.00110757350921631,-0.00876858830451965,0.014156697370737
2.659621269,0.0204334259033203,0.00258350372314453,0.0106842517852783,0.0232024270679859
2.664621269,0.018580436706543,-0.00691008567810059,0.0141252279281616,0.0243414045672606
2.669621269,0.00893115997314453,-0.00359773635864258,0.00512641668319702,0.0109082296172183
2.674621269,0.00816822052001953,-0.00226342678070068,0.00260013341903687,0.00886586831912439
2.679621269,0.0136432647705078,0.00300109386444092,0.00636366009712219,0.0153506158773213
2.684621269,0.00688362121582031,-0.00468182563781738,0.00427782535552979,0.00935967532119727
2.689621269,0.000945091247558594,0.00247633457183838,-0.000582098960876465,0.0027137187728553
2.694621269,0.00738143920898438,-0.0113348960876465,0.00636056065559387,0.0149473156776447
2.699621269,-0.000651359558105469,-0.0111558437347412,0.0108484625816345,0.0155745388083572
2.704621269,0.000268936157226563,-0.00591123104095459,0.0101865231990814,0.0117805022796837
2.709621269,-0.00749683380126953,0.00190258026123047,-0.00532913208007813,0.00939265550423303
2.714621269,-0.00883579254150391,-0.00088346004486084,0.00323587656021118,0.00945106494530038
2.719621269,-0.0135231018066406,-0.0112283229827881,-0.0224749743938446,0.0285319819410174
2.724621269,-0.0154905319213867,-0.0157321691513062,-0.0186092853546143,0.028874958473083
2.729621269,-0.0246477127075195,-0.013872504234314,-0.022084504365921,0.0358842785705922
2.734621269,-0.0220756530761719,-0.0136498212814331,-0.0218396484851837,0.033920824366618
2.739621269,-0.00389766693115234,-0.0088961124420166,-0.0285632908344269,0.0301694250422386
2.744621269,-0.00724124908447266,-0.00641167163848877,-0.0267094969749451,0.0284067324794278
2.749621269,-0.00342273712158203,-0.020442008972168,-0.0487503409385681,0.0529734518589102
2.754621269,-0.00794315338134766,-0.0182863473892212,-0.0305075347423553,0.0364443941167213
2.759621269,-0.0126609802246094,-0.0313541889190674,-0.0157168805599213,0.037288147145646
2.764621269,-0.0122833251953125,-0.0368926525115967,-0.0126877725124359,0.0409014358980531
2.769621269,-0.0115299224853516,-0.024033784866333,-0.0175212323665619,0.031899145931552
2.774621269,-0.0209560394287109,-0.0290411710739136,-0.0153469741344452,0.038962479656271
2.779621269,-0.00727653503417969,-0.0382497310638428,0.00546336174011231,0.0393171490581815
2.784621269,-0.00412559509277344,-0.0292840003967285,0.0183820426464081,0.0348205787711732
2.789621269,-0.0157613754272461,-0.0310729742050171,0.0202116370201111,0.0402797834196881
2.794621269,-0.0207557678222656,-0.0363596677780151,0.0284354090690613,0.0506102739346892
2.799621269,-0.01312255859375,-0.0488526821136475,0.0247021615505219,0.0562937197119854
2.804621269,-0.00745105743408203,-0.0338003635406494,0.0401284992694855,0.0529932003750212
2.809621269,0.000813484191894531,-0.0476592779159546,0.0287735462188721,0.055677513324593
2.814621269,-0.0145235061645508,-0.0517134666442871,0.0428183972835541,0.0686922849351644
2.819621269,-0.0190973281860352,-0.0474990606307983,0.0399895310401917,0.0649617679675349
2.824621269,-0.0104475021362305,-0.0491007566452026,0.0478346645832062,0.069341111469357
2.829621269,-0.00677871704101563,-0.0639601945877075,0.0305295884609222,0.0711963009433274
2.834621269,0.0115165710449219,-0.0685197114944458,0.0344252288341522,0.0775414640834087
2.839621269,-0.00148487091064453,-0.0598883628845215,0.00829046964645386,0.0604777044667552
2.844621269,0.00691032409667969,-0.070757269859314,-0.0110527276992798,0.0719479437278048
2.849621269,0.0167531967163086,-0.0747755765914917,-0.0151347517967224,0.0781096483589177
2.854621269,0.0257148742675781,-0.0688533782958984,-0.0243618190288544,0.0774308768370222
2.859621269,0.0189790725708008,-0.066794753074646,-0.0227804780006409,0.0730800548158548
2.864621269,0.0161027908325195,-0.0617822408676147,-0.0202359557151794,0.0669764067633263
2.869621269,0.0272550582885742,-0.0810586214065552,-0.0153519809246063,0.0868851058867646
2.874621269,0.0124340057373047,-0.0814758539199829,-0.0108165442943573,0.083125909926674
2.879621269,0.0108232498168945,-0.0744490623474121,0.0036969780921936,0.0753224619089281
2.884621269,0.00903892517089844,-0.0770372152328491,0.00188887119293213,0.0775886752913137
2.889621269,-0.00132846832275391,-0.0661280155181885,0.0142285525798798,0.0676544970639553
2.894621269,0.00103282928466797,-0.0820789337158203,0.00268822908401489,0.0821294385215523
2.899621269,-0.002044677734375,-0.0728713274002075,0.0171188712120056,0.0748830208770915
2.904621269,-0.000711441040039063,-0.0930097103118897,0.0171277523040772,0.0945762774676869
2.909621269,-0.0155792236328125,-0.0723081827163696,0.0121516585350037,0.0749589774603176
2.914621269,-0.0274858474731445,-0.0776877403259277,0.00411969423294067,0.0825095672564017
2.919621269,-0.0438976287841797,-0.0788801908493042,0.010479211807251,0.0908784914124213
2.924621269,-0.0452203750610352,-0.068443775177002,0.00659114122390747,0.0822974837025663
2.929621269,-0.0355768203735352,-0.0845266580581665,0.00329786539077759,0.0917678701208036
2.934621269,-0.0491542816162109,-0.0762225389480591,0.00512754917144775,0.0908422291965569
2.939621269,-0.0346078872680664,-0.0782139301300049,-0.0148194432258606,0.0868028837370337
2.944621269,-0.0399532318115234,-0.0832722187042236,-0.0208554565906525,0.0946861827814068
2.949621269,-0.0521144866943359,-0.0883033275604248,-0.0283558666706085,0.106383516374949
2.954621269,-0.0573873519897461,-0.0924888849258423,-0.0202192366123199,0.110708263162267
2.959621269,-0.0482902526855469,-0.0804861783981323,-0.0170564949512482,0.0953986238768249
2.964621269,-0.0532169342041016,-0.0838810205459595,-0.0155096650123596,0.100541620251073
2.969621269,-0.156180381774902,-0.0672184228897095,-0.0175097286701202,0.170930449672477
2.974621269,-0.356695175170898,-0.031705379486084,-0.029464602470398,0.359311622240769
2.979621269,-0.399908065795898,-0.0234740972518921,-0.039236843585968,0.402513383907911
2.984621269,-0.284292221069336,-0.0369019508361816,-0.0145881474018097,0.287048140528151
2.989621269,-0.152498245239258,-0.0479958057403564,0.0127468109130859,0.160380152631717
2.994621269,-0.0246152877807617,-0.0658024549484253,0.0214604735374451,0.0734603797582114
2.999621269,0.0887203216552734,-0.0952895879745483,0.0291349291801453,0.133417559373969
3.004621269,0.177639961242676,-0.125394821166992,0.0533030331134796,0.223877266252958
3.009621269,0.260942459106445,-0.133094668388367,0.0697362422943115,0.301111775271674
3.014621269,0.32407283782959,-0.135305523872376,0.0760344862937927,0.35932162767535
3.019621269,0.352010726928711,-0.147544980049133,0.0851397216320038,0.391062456917247
3.024621269,0.361043930053711,-0.159608483314514,0.0725550651550293,0.401362460693871
3.029621269,0.326970100402832,-0.152212500572205,0.0644502937793732,0.366376762713097
3.034621269,0.287176132202148,-0.145471572875977,0.0537111461162567,0.326369417437845
3.039621269,0.212746620178223,-0.121437907218933,0.0429449677467346,0.248701749012224
3.044621269,0.144384384155273,-0.100615739822388,0.0163263380527496,0.176739714841109
3.049621269,0.0798654556274414,-0.0876948833465576,-0.0110767185688019,0.119128406612351
3.054621269,0.0159807205200195,-0.0790395736694336,-0.0340519547462463,0.0875338406344952
3.059621269,-0.0602340698242188,-0.0668920278549194,-0.0618086159229279,0.109192451938951
3.064621269,-0.133111000061035,-0.0542372465133667,-0.0997474193572998,0.174956465770893
3.069621269,-0.201986312866211,-0.0452735424041748,-0.100868076086044,0.230266222013585
3.074621269,-0.237080574035645,-0.0348057746887207,-0.101738333702087,0.260325429186682
3.079621269,-0.243359565734863,-0.035760760307312,-0.0842176377773285,0.259991001238911
3.084621269,-0.241436958312988,-0.0364450216293335,-0.083644300699234,0.258101556524664
3.089621269,-0.233535766601563,-0.0454273223876953,-0.0741944015026093,0.249213573297735
3.094621269,-0.193779945373535,-0.0589605569839478,-0.088397890329361,0.221000455935071
3.099621269,-0.137828826904297,-0.0592761039733887,-0.0836786329746246,0.171792187379347
3.104621269,-0.0767068862915039,-0.0669859647750855,-0.0742584466934204,0.126037227780947
3.109621269,-0.0254125595092773,-0.0777111053466797,-0.0653038918972015,0.104639439849116
3.114621269,0.0134220123291016,-0.0913288593292236,-0.0251065194606781,0.0956632023338602
3.119621269,0.0520029067993164,-0.100916743278503,0.0340079665184021,0.118511742777813
3.124621269,0.0705862045288086,-0.112141966819763,0.0761341452598572,0.152822253178118
3.129621269,0.0810165405273438,-0.113087058067322,0.103494554758072,0.173388250484028
3.134621269,0.0662164688110352,-0.105589509010315,0.125916302204132,0.177168508250209
3.139621269,0.064183235168457,-0.112896323204041,0.149361997842789,0.197924414535625
3.144621269,0.0461158752441406,-0.10052216053009,0.140623554587364,0.178903221916085
3.149621269,0.0191450119018555,-0.0937914848327637,0.12610137462616,0.158319079047548
3.154621269,0.009185791015625,-0.0962949991226196,0.0902492702007294,0.132295262138794
3.159621269,-0.0250177383422852,-0.0948677062988281,0.0587931275367737,0.11437832301498
3.164621269,-0.0440578460693359,-0.0823972225189209,0.0282304883003235,0.0976081786981837
3.169621269,-0.0525665283203125,-0.0785244703292847,0.00980967283248901,0.0950029579603993
3.174621269,-0.0611095428466797,-0.0777314901351929,-0.0183092355728149,0.100557391040284
3.179621269,-0.0472278594970703,-0.0747904777526856,-0.0632744431495667,0.108755420237511
3.184621269,-0.0537919998168945,-0.0788429975509644,-0.0647447407245636,0.115332904925754
3.189621269,-0.0261697769165039,-0.0804163217544556,-0.0799719393253326,0.116392238176909
3.194621269,-0.00849533081054688,-0.0906341075897217,-0.0702292919158936,0.114973325372339
3.199621269,0.0135288238525391,-0.0839420557022095,-0.0568727850914001,0.102292773324407
3.204621269,0.0590972900390625,-0.0992735624313355,-0.0389284193515778,0.121914526291913
3.209621269,0.0891809463500977,-0.102252602577209,-0.027829498052597,0.138503851526126
3.214621269,0.110771179199219,-0.102845072746277,-0.0146490037441254,0.151861635840221
3.219621269,0.110536575317383,-0.124681830406189,0.0025043785572052,0.166643827453317
3.224621269,0.0828084945678711,-0.0969251394271851,0.00596874952316284,0.127621923651255
3.229621269,0.0404634475708008,-0.0922930240631104,0.0122670531272888,0.101517355523361
3.234621269,-0.015843391418457,-0.0697978734970093,-0.000820070505142212,0.0715781301234976
3.239621269,-0.0562477111816406,-0.0700925588607788,-0.00843992829322815,0.0902662960933916
3.244621269,-0.0916423797607422,-0.0620040893554688,-0.0127395689487457,0.111378316929342
3.249621269,-0.13386344909668,-0.0606050491333008,-0.0177919864654541,0.148016721240865
3.254621269,-0.165051460266113,-0.0435634851455689,-0.0154523551464081,0.171401683345221
3.259621269,-0.193727493286133,-0.0340805053710938,-0.0181522965431213,0.197538169402947
3.264621269,-0.220069885253906,-0.034581184387207,-0.0225927829742432,0.223913033456766
3.269621269,-0.248144149780273,-0.0146994590759277,-0.0389113128185272,0.251606207062864
3.274621269,-0.302155494689941,-0.00590312480926514,-0.0258916318416595,0.303320237460775
3.279621269,-0.354009628295898,0.00520527362823486,-0.0247430801391602,0.354911442214136
3.284621269,-0.362627029418945,0.0127543210983276,-0.00569865107536316,0.362896004105814
3.289621269,-0.263163566589355,-0.00825858116149902,0.0216767489910126,0.264183929090417
3.294621269,-0.118198394775391,-0.030142068862915,0.0450622737407684,0.130038507210379
3.299621269,0.0338201522827148,-0.0492367744445801,0.0673361420631409,0.0900123251898315
3.304621269,0.148107528686523,-0.0630356073379517,0.0834285616874695,0.181299897273368
3.309621269,0.211126327514648,-0.0807082653045654,0.0827609598636627,0.240702153575429
3.314621269,0.286288261413574,-0.0991816520690918,0.0848946869373322,0.314650721595469
3.319621269,0.346714019775391,-0.1009840965271,0.0802299082279205,0.369925989130887
3.324621269,0.370649337768555,-0.109250426292419,0.0559888780117035,0.390450178248586
3.329621269,0.361919403076172,-0.0999537706375122,0.0426666140556335,0.377884705356861
3.334621269,0.292939186096191,-0.0893917083740234,0.000708162784576416,0.306275604270492
3.339621269,0.187838554382324,-0.0796515941619873,-0.0180433988571167,0.204824957481515
3.344621269,0.0749034881591797,-0.0566139221191406,-0.029312789440155,0.0983611119339719
3.349621269,-0.0927972793579102,-0.0271377563476563,-0.0368435978889465,0.103466147029921
3.354621269,-0.249528884887695,-0.00163853168487549,-0.0378009676933289,0.252381184595705
3.359621269,-0.390750885009766,0.0232890844345093,-0.0307323038578033,0.392648838136726
3.364621269,-0.506931304931641,0.0467938184738159,-0.0512020885944366,0.511654828222591
3.369621269,-0.536574363708496,0.0325798988342285,-0.0556243360042572,0.540432756550841
3.374621269,-0.545840263366699,0.0579777956008911,-0.0542661249637604,0.551586647965257
3.379621269,-0.567546844482422,0.0605885982513428,-0.0597720444202423,0.57389293096726
3.384621269,-0.605816841125488,0.0656160116195679,-0.0648461878299713,0.612800566292333
3.389621269,-0.69484806060791,0.0793505907058716,-0.0779379010200501,0.703693583878208
3.394621269,-0.814460754394531,0.0885545015335083,-0.0594304203987122,0.821413534743326
3.399621269,-0.905928611755371,0.108114957809448,-0.0814709365367889,0.915987449258632
3.404621269,-0.918608665466309,0.122432112693787,-0.0671682953834534,0.929162570486551
3.409621269,-0.909619331359863,0.109081864356995,-0.0722473859786987,0.918980884401802
3.414621269,-0.907811164855957,0.10957396030426,-0.0626860857009888,0.916546294059608
3.419621269,-0.925201416015625,0.125056028366089,-0.0496308207511902,0.934933093219218
3.424621269,-0.935157775878906,0.120793700218201,-0.0250095427036285,0.943258533502577
3.429621269,-0.897106170654297,0.124744176864624,0.0175345242023468,0.905907307966246
3.434621269,-0.833972930908203,0.100429177284241,0.0554423630237579,0.841825828040021
3.439621269,-0.701120376586914,0.0786619186401367,0.0584179162979126,0.707933706539047
3.444621269,-0.511449813842773,0.0619436502456665,0.0712865293025971,0.520095853805407
3.449621269,-0.423133850097656,0.0609515905380249,0.0462244153022766,0.429993079081069
3.454621269,-0.417478561401367,0.0707937479019165,0.0565544664859772,0.427198445281896
3.459621269,-0.231842041015625,0.0516455173492432,0.0511404871940613,0.242967777441799
3.464621269,0.119089126586914,-0.000194787979125977,0.0684967339038849,0.137382897658662
3.469621269,0.355005264282227,-0.0277289152145386,0.067315936088562,0.36239352320171
3.474621269,0.298643112182617,-0.0270675420761108,0.0612652003765106,0.306061734075554
3.479621269,0.15634822845459,0.000107407569885254,0.0374120473861694,0.160762064452095
3.484621269,0.124974250793457,0.0246967077255249,0.00393286347389221,0.127451787547175
3.489621269,0.182762145996094,0.00703001022338867,-0.000186353921890259,0.18289739686672
3.494621269,0.243749618530273,-0.00101161003112793,-0.0149829089641571,0.244211767631163
3.499621269,0.434464454650879,-0.0260382890701294,-0.0264521539211273,0.436047097570724
3.504621269,0.749537467956543,-0.0768353939056397,-0.04634889960289,0.754889603930097
3.509621269,1.11849212646484,-0.11949348449707,-0.0108186602592468,1.12490905108409
3.514621269,1.45561599731445,-0.176945924758911,0.0196185410022736,1.46646264155538
3.519621269,1.90818214416504,-0.246706128120422,0.0451087057590485,1.92459289313291
3.524621269,2.36126279830933,-0.33826220035553,0.0854263007640839,2.38689777152923
3.529621269,2.73157691955566,-0.394408345222473,0.104689955711365,2.76188891830522
3.534621269,2.98320960998535,-0.447010397911072,0.131240397691727,3.01936780053968
3.539621269,3.11602926254272,-0.494856476783752,0.136576026678085,3.15803329759212
3.544621269,3.18335628509522,-0.505368232727051,0.130854576826096,3.22587619241365
3.549621269,3.18323135375977,-0.516942262649536,0.133439868688583,3.22769226430093
3.554621269,3.05721187591553,-0.49289870262146,0.122957438230515,3.09913086475887
3.559621269,2.80060005187988,-0.455248832702637,0.112126350402832,2.83957469856339
3.564621269,2.40556335449219,-0.39549994468689,0.0991741120815277,2.43987515320563
3.569621269,1.9480037689209,-0.330188035964966,0.0918108224868774,1.97792114351158
3.574621269,1.41959476470947,-0.237385630607605,0.0939545929431915,1.44236912721558
3.579621269,0.940860748291016,-0.17121410369873,0.0629091560840607,0.958379245862147
3.584621269,0.480703353881836,-0.0957179069519043,0.0356602072715759,0.491435939393072
3.589621269,0.0151128768920898,-0.0228501558303833,0.0167039036750793,0.0320865870328178
3.594621269,-0.418075561523438,0.0368832349777222,0.0165411233901978,0.420025186064561
3.599621269,-0.777328491210938,0.0756655931472778,0.0110215246677399,0.781080238669884
3.604621269,-1.0497932434082,0.115055799484253,-0.0186757445335388,1.05624451446356
3.609621269,-1.23988056182861,0.121211886405945,-0.0198060274124146,1.24594879819694
3.614621269,-1.42749786376953,0.125423550605774,-0.0135526657104492,1.43306137093322
3.619621269,-1.59715747833252,0.124740958213806,-0.0269063711166382,1.60224725621742
3.624621269,-1.77732372283936,0.155761003494263,-0.00795257091522217,1.78415367873994
3.629621269,-1.92970275878906,0.143435120582581,-0.00786316394805908,1.93504217019731
3.634621269,-2.06008148193359,0.163119435310364,0.0022231936454773,2.06653057199057
3.639621269,-2.16506290435791,0.183293223381042,0.00759848952293396,2.17282109769929
3.644621269,-2.30966091156006,0.199384331703186,0.000250279903411865,2.31825100037878
3.649621269,-2.469313621521,0.240354299545288,-0.0188183784484863,2.48105503407451
3.654621269,-2.6371488571167,0.277127027511597,-0.031203418970108,2.65185352863327
3.659621269,-2.74598217010498,0.295698404312134,-0.0222300291061401,2.76194674080462
3.664621269,-2.8062219619751,0.315003037452698,-0.0212127268314362,2.82392609557251
3.669621269,-2.88203907012939,0.327791929244995,-0.0289216339588165,2.90076424611538
3.674621269,-2.90825366973877,0.338876128196716,-0.0311728715896606,2.92809634160725
3.679621269,-2.85125541687012,0.342997670173645,-0.0238496363162994,2.87191115098085
3.684621269,-2.68999767303467,0.338998317718506,-0.00977775454521179,2.7112917483797
3.689621269,-2.41894054412842,0.291022539138794,-0.0131582319736481,2.43641962998654
3.694621269,-2.07006931304932,0.253750205039978,0.0188928544521332,2.08564931552158
3.699621269,-1.72121906280518,0.217793703079224,0.039228618144989,1.73538700114598
3.704621269,-1.38296985626221,0.174463033676147,0.0545329749584198,1.39499706766975
3.709621269,-1.02305316925049,0.113213062286377,0.0782350301742554,1.0322672640998
3.714621269,-0.64491081237793,0.0491869449615479,0.0992549955844879,0.654355305338841
3.719621269,-0.21558666229248,0.00497448444366455,0.126245200634003,0.249880381656928
3.724621269,0.179631233215332,-0.0690572261810303,0.152275443077087,0.245405971807131
3.729621269,0.491115570068359,-0.117279410362244,0.192003548145294,0.540198413325018
3.734621269,0.715014457702637,-0.149073123931885,0.213928520679474,0.761074163904356
3.739621269,0.921708106994629,-0.163335919380188,0.215419918298721,0.96053641173004
3.744621269,1.10809993743896,-0.192927360534668,0.232752621173859,1.14859924275546
3.749621269,1.26770973205566,-0.210803151130676,0.266415596008301,1.31244169511324
3.754621269,1.38890933990479,-0.216115593910217,0.270462602376938,1.4314066940218
3.759621269,1.4525318145752,-0.237233519554138,0.289091467857361,1.49990076069755
3.764621269,1.52162170410156,-0.254537582397461,0.307628691196442,1.57313616794381
3.769621269,1.6174840927124,-0.279976963996887,0.304151356220245,1.66947594712748
3.774621269,1.72700595855713,-0.278640747070313,0.322648286819458,1.77884573918237
3.779621269,1.837975025177,-0.300512552261353,0.352838635444641,1.89550919013954
3.784621269,1.89786291122437,-0.308288335800171,0.353003621101379,1.95487515823956
3.789621269,1.88865995407105,-0.313289523124695,0.350544810295105,1.94629607496808
3.794621269,1.81379652023315,-0.311086416244507,0.348217576742172,1.87293567853622
3.799621269,1.70591402053833,-0.293669939041138,0.351017534732819,1.76623837243323
3.804621269,1.56933879852295,-0.288625121116638,0.342427134513855,1.63198807211953
3.809621269,1.38535594940186,-0.26124918460846,0.321425378322601,1.44595176850112
3.814621269,1.14526748657227,-0.217547059059143,0.295464366674423,1.2026069726553
3.819621269,0.851533889770508,-0.176031351089478,0.278520047664642,0.913055539901704
3.824621269,0.538886070251465,-0.124643206596375,0.257085859775543,0.609940378199561
3.829621269,0.245484352111816,-0.0644701719284058,0.216613829135895,0.333677270986729
3.834621269,-0.0236606597900391,-0.0346221923828125,0.199472546577454,0.20383282332634
3.839621269,-0.220695495605469,0.0126160383224487,0.171829521656036,0.279984018679708
3.844621269,-0.361980438232422,0.0341881513595581,0.148888051509857,0.392894794109978
3.849621269,-0.437353134155273,0.0445156097412109,0.132775336503983,0.459226189856173
3.854621269,-0.410959243774414,0.0536961555480957,0.113474249839783,0.429705925652632
3.859621269,-0.285557746887207,0.017169713973999,0.108653277158737,0.306012353545703
3.864621269,-0.0663261413574219,-0.0102449655532837,0.103918939828873,0.123706355542913
3.869621269,0.17863941192627,-0.0285836458206177,0.107221156358719,0.21029845618231
3.874621269,0.456193923950195,-0.0734038352966309,0.0938332378864288,0.471493049596261
3.879621269,0.744714736938477,-0.127443432807922,0.0891448557376862,0.760781619969689
3.884621269,1.01256370544434,-0.17041289806366,0.0971877872943878,1.03139288314822
3.889621269,1.24573421478271,-0.209298253059387,0.102146297693253,1.26731738674511
3.894621269,1.42943382263184,-0.22568154335022,0.0846087038516998,1.44961092885652
3.899621269,1.53767490386963,-0.260428428649902,0.09129998087883,1.56224286298514
3.904621269,1.5828104019165,-0.255061864852905,0.0842007696628571,1.60543922118813
3.909621269,1.58590364456177,-0.255033493041992,0.0910045206546783,1.60885495778429
3.914621269,1.51620388031006,-0.234000205993652,0.0872312784194946,1.5366325517205
3.919621269,1.41261863708496,-0.196480751037598,0.0904408991336823,1.42908210247144
3.924621269,1.27283000946045,-0.188506841659546,0.0862313807010651,1.28959951665358
3.929621269,1.1128044128418,-0.151618003845215,0.0906714200973511,1.12673998187366
3.934621269,0.948607444763184,-0.134407043457031,0.0859721601009369,0.96193167631772
3.939621269,0.776462554931641,-0.110244035720825,0.097884476184845,0.790334876682642
3.944621269,0.610307693481445,-0.0827450752258301,0.0889854729175568,0.622286624142871
3.949621269,0.439465522766113,-0.0592254400253296,0.090835839509964,0.452646383157722
3.954621269,0.30477237701416,-0.0331631898880005,0.104275733232498,0.323820054189953
3.959621269,0.139232635498047,-0.0219954252243042,0.0931183099746704,0.168939471915443
3.964621269,-0.0991220474243164,0.0154165029525757,0.0676912665367127,0.121016347714759
3.969621269,-0.425820350646973,0.0510133504867554,0.049423098564148,0.431703573791875
3.974621269,-0.791049957275391,0.0914944410324097,0.0305148363113403,0.79690803916157
3.979621269,-1.02583408355713,0.123734831809998,-0.0115595459938049,1.03333416603446
3.984621269,-1.13738250732422,0.156648278236389,-0.047329306602478,1.14909430174595
3.989621269,-1.38265228271484,0.189719200134277,-0.0699003338813782,1.39735706477367
3.994621269,-1.63593769073486,0.221654176712036,-0.0961954593658447,1.65368566191505
3.999621269,-1.88582324981689,0.257396578788757,-0.115016102790833,1.90678027895804
4.004621269,-2.11391544342041,0.285169243812561,-0.141960144042969,2.13778218769935
4.009621269,-2.28231239318848,0.317193150520325,-0.172211229801178,2.31067480674117
4.014621269,-2.34047222137451,0.320578455924988,-0.202785283327103,2.37101299797429
4.019621269,-2.27659606933594,0.304322361946106,-0.225728631019592,2.3079114319571
4.024621269,-2.14899444580078,0.286105394363403,-0.248281031847,2.1821266909924
4.029621269,-1.97302055358887,0.260188698768616,-0.26261505484581,2.00735520794968
4.034621269,-1.7655143737793,0.241598844528198,-0.272182166576386,1.80263533125834
4.039621269,-1.49377822875977,0.192796349525452,-0.299888342618942,1.53573332553075
4.044621269,-1.24789428710938,0.150850772857666,-0.313880741596222,1.29557602147345
4.049621269,-0.993136405944824,0.108303546905518,-0.333141565322876,1.05310630120188
4.054621269,-0.767374992370606,0.0810283422470093,-0.341199338436127,0.843710234448022
4.059621269,-0.589971542358398,0.0537765026092529,-0.32624289393425,0.676308183351514
4.064621269,-0.456188201904297,0.0367945432662964,-0.325998544692993,0.56190440923061
4.069621269,-0.35153865814209,0.00108778476715088,-0.338213860988617,0.48782089665047
4.074621269,-0.245689392089844,0.0252504348754883,-0.307090789079666,0.394088333479247
4.079621269,-0.179969787597656,0.00494718551635742,-0.293631881475449,0.344431823313832
4.084621269,-0.130643844604492,0.0111188888549805,-0.276611119508743,0.306112977931829
4.089621269,-0.100619316101074,0.0165963172912598,-0.2477225959301,0.267892084718133
4.094621269,-0.0244417190551758,0.0133804082870483,-0.243105709552765,0.244697402874353
4.099621269,0.0997676849365234,-0.000671029090881348,-0.232740432024002,0.253223517739473
4.104621269,0.269994735717773,-0.0159187316894531,-0.197176814079285,0.334707722265812
4.109621269,0.42524242401123,-0.0437606573104858,-0.169542789459229,0.459881367055471
4.114621269,0.576133728027344,-0.0581822395324707,-0.153436869382858,0.5990476762777
4.119621269,0.712421417236328,-0.0885176658630371,-0.118240088224411,0.727571557559925
4.124621269,0.882813453674316,-0.106461405754089,-0.106094986200333,0.895516482818915
4.129621269,1.03636455535889,-0.148928165435791,-0.0710362792015076,1.04941757324103
4.134621269,1.20447731018066,-0.174842834472656,-0.0537811815738678,1.21828897351899
4.139621269,1.32142162322998,-0.183662176132202,-0.0265675783157349,1.33438852569217
4.144621269,1.3635721206665,-0.18157696723938,-0.00494569540023804,1.37561752794655
4.149621269,1.34204196929932,-0.181996464729309,-0.00293231010437012,1.35432933918501
4.154621269,1.26971912384033,-0.178300380706787,-0.0139410197734833,1.28225271738389
4.159621269,1.16247272491455,-0.140899538993835,-0.0208213031291962,1.17116567697441
4.164621269,1.01185417175293,-0.119032025337219,-0.022497832775116,1.01907980081506
4.169621269,0.829087257385254,-0.0915759801864624,-0.0372574925422668,0.834961053736191
4.174621269,0.633991241455078,-0.0497519969940186,-0.0667904615402222,0.639438129297432
4.179621269,0.446246147155762,-0.0220575332641602,-0.08804652094841,0.455383737606186
4.184621269,0.2747802734375,0.00210821628570557,-0.110507845878601,0.296176682483654
4.189621269,0.109065055847168,0.0370330810546875,-0.138824462890625,0.180385329215597
4.194621269,-0.0316677093505859,0.039551854133606,-0.166512578725815,0.174050658875053
4.199621269,-0.155096054077148,0.0588463544845581,-0.172975063323975,0.239662370760111
4.204621269,-0.257101058959961,0.0707360506057739,-0.198517888784409,0.332436302983075
4.209621269,-0.33066463470459,0.072399377822876,-0.207640260457993,0.39710861022713
4.214621269,-0.396443367004395,0.0850265026092529,-0.230689615011215,0.46649174468769
4.219621269,-0.473243713378906,0.0768799781799316,-0.246045380830765,0.538895604663611
4.224621269,-0.553044319152832,0.0930407047271729,-0.260581940412521,0.618399174766997
4.229621269,-0.639128684997559,0.105386137962341,-0.248936504125595,0.693946033310659
4.234621269,-0.752352714538574,0.124108195304871,-0.242339134216309,0.800103560289606
4.239621269,-0.845633506774902,0.140906572341919,-0.234604507684708,0.888813796548834
4.244621269,-0.909626007080078,0.153732180595398,-0.244991958141327,0.954502024964318
4.249621269,-0.971970558166504,0.163218021392822,-0.243207037448883,1.01514361127604
4.254621269,-1.00969982147217,0.169438719749451,-0.227690070867538,1.04883076690328
4.259621269,-1.03422451019287,0.180309295654297,-0.217771917581558,1.07217367421056
4.264621269,-0.999212265014648,0.176918745040894,-0.216622322797775,1.03761776374388
4.269621269,-0.881204605102539,0.156219244003296,-0.183724164962769,0.913608546940182
4.274621269,-0.712957382202148,0.144294738769531,-0.156180709600449,0.743990332278859
4.279621269,-0.553698539733887,0.11305558681488,-0.136160671710968,0.581294561418114
4.284621269,-0.348974227905273,0.0678095817565918,-0.123124837875366,0.37621918720597
4.289621269,-0.153212547302246,0.0622028112411499,-0.111551076173782,0.199466581092358
4.294621269,0.0586872100830078,0.0311049222946167,-0.0901322662830353,0.11196218220273
4.299621269,0.226924896240234,-0.00632190704345703,-0.0727270543575287,0.238378059975809
4.304621269,0.410595893859863,-0.0299519300460815,-0.0672696530818939,0.417146631766126
4.309621269,0.560770034790039,-0.0466159582138062,-0.0628770291805267,0.566206323063582
4.314621269,0.605610847473145,-0.0648238658905029,-0.0601765215396881,0.612035820774199
4.319621269,0.621701240539551,-0.0631526708602905,-0.0707344710826874,0.628891133444058
4.324621269,0.586663246154785,-0.0503456592559814,-0.085484117269516,0.594992423565324
4.329621269,0.5672607421875,-0.047873854637146,-0.0989313125610352,0.577809709324775
4.334621269,0.508197784423828,-0.03592848777771,-0.129960745573044,0.525780980748812
4.339621269,0.437698364257813,-0.0176894664764404,-0.143125921487808,0.460844664393459
4.344621269,0.343355178833008,0.00908851623535156,-0.156125336885452,0.377293653241614
4.349621269,0.257695198059082,0.0149103403091431,-0.161076784133911,0.304261176849375
4.354621269,0.23665714263916,0.0199447870254517,-0.156254142522812,0.284288154426388
4.359621269,0.217476844787598,0.0179833173751831,-0.16704785823822,0.274817329629268
4.364621269,0.243151664733887,0.0277646780014038,-0.189709007740021,0.309649991159511
4.369621269,0.244108200073242,0.0104297399520874,-0.15288582444191,0.288221560841219
4.374621269,0.265971183776855,0.0180090665817261,-0.145808517932892,0.303850491163982
4.379621269,0.30327033996582,-0.00275325775146484,-0.138973861932755,0.33360787435511
4.384621269,0.312942504882813,-0.0133994817733765,-0.125956028699875,0.337605507419485
4.389621269,0.305591583251953,-0.0123658180236816,-0.0981369614601135,0.321200859921723
4.394621269,0.272866249084473,-0.0116534233093262,-0.11623752117157,0.296821416835725
4.399621269,0.21369743347168,0.00227737426757813,-0.05815190076828,0.221480073751346
4.404621269,0.141251564025879,0.0114914178848267,-0.0589710474014282,0.153498017760433
4.409621269,0.0580263137817383,0.0306708812713623,-0.0356720685958862,0.0747010878566595
4.414621269,-0.0719776153564453,0.0409358739852905,-0.0122165083885193,0.0837004538132664
4.419621269,-0.200424194335938,0.0664845705032349,-0.0145608484745026,0.211665004425641
4.424621269,-0.329362869262695,0.0959460735321045,-0.0168956220149994,0.343469082623832
4.429621269,-0.417095184326172,0.121655583381653,-0.00378569960594177,0.434491432916139
4.434621269,-0.510170936584473,0.142621636390686,0.011084258556366,0.529847314317983
4.439621269,-0.55058479309082,0.143481850624084,0.00906354188919067,0.569045519825041
4.444621269,-0.553414344787598,0.14187502861023,0.00861454010009766,0.571375682945097
4.449621269,-0.512262344360352,0.127846121788025,0.0107276439666748,0.528083726932461
4.454621269,-0.461573600769043,0.124595642089844,0.0236341953277588,0.478678219834025
4.459621269,-0.417411804199219,0.109898447990417,0.0214264690876007,0.432168227352626
4.464621269,-0.358490943908691,0.113766193389893,0.0112463533878326,0.376277801746921
4.469621269,-0.283138275146484,0.098308801651001,0.000264286994934082,0.299719824473787
4.474621269,-0.209887504577637,0.0750888586044312,-0.00295433402061462,0.222934585369451
4.479621269,-0.158564567565918,0.084331750869751,-0.00528392195701599,0.179673276041186
4.484621269,-0.169033050537109,0.0818344354629517,0.00348478555679321,0.187832879794241
4.489621269,-0.190948486328125,0.0748291015625,-0.0254005789756775,0.206654078798249
4.494621269,-0.218390464782715,0.0871677398681641,-0.0178501904010773,0.235820353826994
4.499621269,-0.261271476745605,0.103082537651062,-0.0221055746078491,0.281740040743511
4.504621269,-0.298284530639648,0.110484004020691,-0.0442463159561157,0.321151230480358
4.509621269,-0.349556922912598,0.127951264381409,-0.0231096148490906,0.372955255642548
4.514621269,-0.353985786437988,0.129850029945374,-0.0287060439586639,0.378141513506111
4.519621269,-0.326648712158203,0.128525257110596,-0.012493371963501,0.351246647262256
4.524621269,-0.287005424499512,0.137537121772766,-0.0183469355106354,0.31878705055305
4.529621269,-0.21241283416748,0.123608469963074,-0.000246256589889526,0.245760710057531
4.534621269,-0.0826396942138672,0.0942713022232056,0.0402933955192566,0.131681263682772
4.539621269,0.0482311248779297,0.0762251615524292,0.0643373131752014,0.110796238777715
4.544621269,0.160512924194336,0.0548732280731201,0.0863976180553436,0.190368112871401
4.549621269,0.278151512145996,0.0532876253128052,0.108419790863991,0.303253500839765
4.554621269,0.372790336608887,0.0290999412536621,0.120559364557266,0.392879118855133
4.559621269,0.482999801635742,0.0192663669586182,0.144695729017258,0.504575916262148
4.564621269,0.534043312072754,0.00422179698944092,0.178610265254974,0.563135604977974
4.569621269,0.561550140380859,0.00406253337860107,0.192750677466393,0.593723747211587
4.574621269,0.537111282348633,0.0171869993209839,0.193017020821571,0.570998680295049
4.579621269,0.471634864807129,0.0379523038864136,0.192029058933258,0.510641736001591
4.584621269,0.393319129943848,0.0448991060256958,0.182148784399033,0.435768341392232
4.589621269,0.282063484191895,0.0607892274856567,0.185311049222946,0.342921746549972
4.594621269,0.181975364685059,0.0762014389038086,0.186053097248077,0.27117788928833
4.599621269,0.107339859008789,0.0829019546508789,0.183145329356194,0.22789644815563
4.604621269,0.058868408203125,0.0941445827484131,0.144431799650192,0.18217913353465
4.609621269,0.0480690002441406,0.103766083717346,0.147347539663315,0.186518970507932
4.614621269,0.0485458374023438,0.0935056209564209,0.150184392929077,0.18345394887823
4.619621269,0.0557842254638672,0.0909439325332642,0.139104947447777,0.175307915051395
4.624621269,0.0629444122314453,0.0817832946777344,0.134225055575371,0.169312940626872
4.629621269,0.0446434020996094,0.0908616781234741,0.105220422148705,0.146014434696001
4.634621269,0.0481986999511719,0.0760279893875122,0.106839388608933,0.139706924687437
4.639621269,0.0631465911865234,0.0689833164215088,0.112209215760231,0.146072235638789
4.644621269,0.0580062866210938,0.0713224411010742,0.107418298721313,0.141387095565211
4.649621269,0.00414371490478516,0.0786994695663452,0.103137865662575,0.129800601757725
4.654621269,-0.0632972717285156,0.0921489000320435,0.0964134484529495,0.147626276211177
4.659621269,-0.139305114746094,0.0954723358154297,0.0907039046287537,0.191697887874068
4.664621269,-0.2239990234375,0.106373429298401,0.101521268486977,0.267950437426141
4.669621269,-0.320558547973633,0.131703972816467,0.0980097502470017,0.360152232088161
4.674621269,-0.39296817779541,0.15123176574707,0.0949048101902008,0.431627106109035
4.679621269,-0.458688735961914,0.161434888839722,0.112814918160439,0.499183118296861
4.684621269,-0.485323905944824,0.170413136482239,0.123189806938171,0.528919331562686
4.689621269,-0.51290225982666,0.175624847412109,0.118461847305298,0.554928846277435
4.694621269,-0.476984024047852,0.160834074020386,0.138860568404198,0.522172017653583
4.699621269,-0.441736221313477,0.153784513473511,0.163804352283478,0.495593010071372
4.704621269,-0.366589546203613,0.136973857879639,0.170640468597412,0.4269284514428
4.709621269,-0.286863327026367,0.130254149436951,0.186992302536964,0.366364344671061
4.714621269,-0.185173034667969,0.114252924919128,0.196844309568405,0.293411768390743
4.719621269,-0.124835014343262,0.110625624656677,0.229483723640442,0.283698059656116
4.724621269,-0.0470266342163086,0.0916068553924561,0.214850515127182,0.23825210204954
4.729621269,0.0192146301269531,0.0712515115737915,0.215849101543427,0.228115791977606
4.734621269,0.0562553405761719,0.079136848449707,0.234498351812363,0.253804612110591
4.739621269,0.0753459930419922,0.0850516557693481,0.221893593668938,0.249294142987571
4.744621269,0.0724668502807617,0.0766695737838745,0.219745427370071,0.243757504056533
4.749621269,0.0476808547973633,0.0782952308654785,0.21469435095787,0.233446506557085
4.754621269,0.0187883377075195,0.0803234577178955,0.195283845067024,0.211992074469146
4.759621269,0.00939369201660156,0.0903128385543823,0.180394530296326,0.201957512408637
4.764621269,-0.00971126556396484,0.09715735912323,0.17455105483532,0.20000482957863
4.769621269,-0.0379266738891602,0.102696657180786,0.140879765152931,0.1784156501486
4.774621269,-0.0329389572143555,0.101917386054993,0.13190969824791,0.169918500977693
4.779621269,-0.0387887954711914,0.0995913743972778,0.121422708034515,0.161760583996473
4.784621269,0.0124282836914063,0.070449709892273,0.109654098749161,0.130926105998423
4.789621269,0.0561685562133789,0.0717995166778565,0.106238856911659,0.139988471025886
4.794621269,0.109047889709473,0.0572167634963989,0.0913071185350418,0.153304240548865
4.799621269,0.147747993469238,0.0532612800598145,0.0801548063755035,0.176326477061417
4.804621269,0.165959358215332,0.049357533454895,0.094492495059967,0.197249857568146
4.809621269,0.208339691162109,0.0383590459823608,0.087801456451416,0.22931624250626
4.814621269,0.233852386474609,0.0286974906921387,0.0777619928121567,0.248107662433092
4.819621269,0.229722023010254,0.0265086889266968,0.0669494569301605,0.240742908987533
4.824621269,0.222620964050293,0.028992772102356,0.0695101916790009,0.235015619089695
4.829621269,0.182634353637695,0.0307059288024902,0.0775741785764694,0.200788232658431
4.834621269,0.121490478515625,0.0393553972244263,0.0767987221479416,0.149019553697509
4.839621269,0.0512542724609375,0.03641676902771,0.0712248235940933,0.0950060893202499
4.844621269,-0.0303173065185547,0.0508402585983276,0.0713021755218506,0.0926707677913247
4.849621269,-0.107517242431641,0.0620468854904175,0.0902446210384369,0.153472685014423
4.854621269,-0.170490264892578,0.0677834749221802,0.102451294660568,0.210137568448133
4.859621269,-0.216037750244141,0.0686118602752686,0.114071741700172,0.253756298750383
4.864621269,-0.27174186706543,0.075128436088562,0.110620141029358,0.30286092489239
4.869621269,-0.285209655761719,0.0691301822662354,0.114490330219269,0.31501042134126
4.874621269,-0.262392997741699,0.071639895439148,0.114836603403091,0.295245330807392
4.879621269,-0.224288940429688,0.0575715303421021,0.117777466773987,0.259791342397512
4.884621269,-0.171828269958496,0.0375221967697144,0.1236592233181,0.214998774691836
4.889621269,-0.10533618927002,0.0489485263824463,0.125266879796982,0.170831677914296
4.894621269,-0.0476856231689453,0.0233743190765381,0.136969715356827,0.146904664235798
4.899621269,0.0153779983520508,0.0140825510025024,0.118286192417145,0.120110051172246
4.904621269,0.0668249130249023,0.00218689441680908,0.12535884976387,0.14207460266387
4.909621269,0.115777969360352,-0.00523757934570313,0.110608905553818,0.160207054821011
4.914621269,0.18051815032959,-0.0156875848770142,0.0991629064083099,0.20655794568361
4.919621269,0.207685470581055,-0.0276004076004028,0.0758980810642242,0.222835266282997
4.924621269,0.238871574401855,-0.0364718437194824,0.0660729110240936,0.250510387035582
4.929621269,0.277000427246094,-0.0302834510803223,0.0555808246135712,0.284140022116873
4.934621269,0.289397239685059,-0.0391620397567749,0.0303046703338623,0.293603134757255
4.939621269,0.272224426269531,-0.0387090444564819,0.0188810527324677,0.275610272908677
4.944621269,0.295543670654297,-0.0292668342590332,0.0221581757068634,0.297814696752893
4.949621269,0.310840606689453,-0.0405755043029785,-0.0268093943595886,0.314621992146824
4.954621269,0.325921058654785,-0.0396653413772583,-0.00867259502410889,0.328440389851313
4.959621269,0.317075729370117,-0.0362728834152222,-0.0319110155105591,0.320735176021841
4.964621269,0.318343162536621,-0.0508415699005127,-0.039519876241684,0.324790786479426
4.969621269,0.32762336730957,-0.0396997928619385,-0.0533390939235687,0.334302562510564
4.974621269,0.352147102355957,-0.0456950664520264,-0.0502932369709015,0.358643319303125
4.979621269,0.348798751831055,-0.0507434606552124,-0.0377331376075745,0.354484495784909
4.984621269,0.295238494873047,-0.0465232133865356,-0.0524013340473175,0.303440402795425
4.989621269,0.259891510009766,-0.038176417350769,-0.0558886229991913,0.268560186918393
4.994621269,0.194240570068359,-0.0231077671051025,-0.0722202658653259,0.208516509568723
4.999621269,0.129094123840332,-0.0105838775634766,-0.0741496384143829,0.149249724124922
5.004621269,0.0435237884521484,-0.0131248235702515,-0.0750653743743897,0.0877575728068232
5.009621269,-0.0368947982788086,0.00664031505584717,-0.10282826423645,0.109448489482295
5.014621269,-0.104607582092285,0.0236303806304932,-0.0963802933692932,0.144188425575312
5.019621269,-0.181207656860352,0.0230648517608643,-0.10651558637619,0.211456313295757
5.024621269,-0.247533798217773,0.0217361450195313,-0.109813362360001,0.271669681439126
5.029621269,-0.294266700744629,0.0393365621566772,-0.11710661649704,0.319146073008615
5.034621269,-0.323860168457031,0.0435165166854858,-0.11203396320343,0.345442766386159
5.039621269,-0.367260932922363,0.0398772954940796,-0.149292290210724,0.398445704536126
5.044621269,-0.366757392883301,0.0443146228790283,-0.147172123193741,0.397661168434661
5.049621269,-0.352255821228027,0.0294369459152222,-0.148101091384888,0.383255307390834
5.054621269,-0.345379829406738,0.0205038785934448,-0.142753094434738,0.374280752335858
5.059621269,-0.344390869140625,0.0296288728713989,-0.162401765584946,0.381912652736424
5.064621269,-0.361743927001953,0.028235912322998,-0.157512336969376,0.39555792466472
5.069621269,-0.395614624023438,0.019228458404541,-0.178412258625031,0.434409482379823
5.074621269,-0.416738510131836,0.0180530548095703,-0.192857056856155,0.459554940125855
5.079621269,-0.418605804443359,0.0252094268798828,-0.205302447080612,0.466921224078079
5.084621269,-0.42482852935791,0.0261781215667725,-0.208359926939011,0.473897069582836
5.089621269,-0.431676864624023,0.0226621627807617,-0.211898386478424,0.481413974938087
5.094621269,-0.461588859558105,0.0207781791687012,-0.219014436006546,0.511334852300315
5.099621269,-0.450105667114258,0.0258026123046875,-0.220128804445267,0.501714636936795
5.104621269,-0.482165336608887,0.029715895652771,-0.224077016115189,0.532519441365941
5.109621269,-0.456064224243164,0.0373481512069702,-0.239093363285065,0.516289741714923
5.114621269,-0.427633285522461,0.0238699913024902,-0.239163786172867,0.490550017824948
5.119621269,-0.375672340393066,0.0188865661621094,-0.245746314525604,0.44930797992103
5.124621269,-0.307736396789551,0.0107880830764771,-0.226926982402802,0.382510036453845
5.129621269,-0.243263244628906,0.00154757499694824,-0.228827983140945,0.333978512847918
5.134621269,-0.171503067016602,0.000931739807128906,-0.222158581018448,0.280657451807892
5.139621269,-0.112646102905273,-0.014435887336731,-0.203085958957672,0.232683145218345
5.144621269,-0.0406789779663086,-0.0336836576461792,-0.191159963607788,0.198321707655363
5.149621269,0.00158500671386719,-0.0354446172714233,-0.190229207277298,0.193509649478133
5.154621269,0.0426034927368164,-0.0219751596450806,-0.192172080278397,0.198060782774706
5.159621269,0.0779037475585938,-0.0364229679107666,-0.163655668497086,0.184875104614791
5.164621269,0.0898189544677734,-0.046051025390625,-0.159997403621674,0.189175343760461
5.169621269,0.110183715820313,-0.0361738204956055,-0.158662736415863,0.196526996741387
5.174621269,0.124600410461426,-0.0354406833648682,-0.145520389080048,0.194826815306654
5.179621269,0.144773483276367,-0.0361568927764893,-0.139995813369751,0.204610630506534
5.184621269,0.147750854492188,-0.0257951021194458,-0.142613887786865,0.206964787551431
5.189621269,0.150924682617188,-0.0375914573669434,-0.147377043962479,0.214269387867674
5.194621269,0.166872024536133,-0.0317527055740356,-0.131024152040482,0.214527003666173
5.199621269,0.198270797729492,-0.0320371389389038,-0.131400972604752,0.240008131331325
5.204621269,0.213991165161133,-0.0382740497589111,-0.126407027244568,0.251467409794541
5.209621269,0.252621650695801,-0.0464986562728882,-0.13407090306282,0.289749599626187
5.214621269,0.29454517364502,-0.0540581941604614,-0.132843613624573,0.327607346306977
5.219621269,0.301685333251953,-0.0635591745376587,-0.119546562433243,0.330673841657994
5.224621269,0.324939727783203,-0.0544136762619019,-0.130159556865692,0.354243115811205
5.229621269,0.320942878723145,-0.0486689805984497,-0.127641886472702,0.348805751469068
5.234621269,0.310450553894043,-0.0485721826553345,-0.126183599233627,0.338616455678949
5.239621269,0.275224685668945,-0.0566589832305908,-0.15038788318634,0.318708932086257
5.244621269,0.228901863098145,-0.0565136671066284,-0.148872882127762,0.278842235919645
5.249621269,0.220999717712402,-0.0322407484054565,-0.157056719064713,0.273033247224724
5.254621269,0.183188438415527,-0.0349769592285156,-0.165754735469818,0.24951157082721
5.259621269,0.16790771484375,-0.0314968824386597,-0.186593294143677,0.252986386445582
5.264621269,0.152684211730957,-0.0247980356216431,-0.184964269399643,0.241120700142355
5.269621269,0.151257514953613,-0.0307412147521973,-0.182972967624664,0.239380377215343
5.274621269,0.146844863891602,-0.0505521297454834,-0.191651046276093,0.246676013045185
5.279621269,0.181072235107422,-0.0463534593582153,-0.194067746400833,0.269440323103965
5.284621269,0.222622871398926,-0.0579366683959961,-0.207326829433441,0.309680504096809
5.289621269,0.247439384460449,-0.0632193088531494,-0.202520132064819,0.325940690748467
5.294621269,0.25015926361084,-0.0625506639480591,-0.208945453166962,0.331889206106206
5.299621269,0.248359680175781,-0.070116400718689,-0.197567671537399,0.325010500174179
5.304621269,0.236565589904785,-0.0829426050186157,-0.202928483486176,0.322525539243441
5.309621269,0.214308738708496,-0.0776591300964356,-0.187078297138214,0.294885512079342
5.314621269,0.168591499328613,-0.0663512945175171,-0.188283056020737,0.261296951980937
5.319621269,0.111976623535156,-0.0595804452896118,-0.182978689670563,0.222642750954974
5.324621269,0.0251522064208984,-0.0496132373809814,-0.18088310956955,0.189242717531774
5.329621269,-0.0803003311157227,-0.0396327972412109,-0.184333801269531,0.204933774876014
5.334621269,-0.170421600341797,-0.0154008865356445,-0.181850343942642,0.249700333922885
5.339621269,-0.263426780700684,-0.00408709049224854,-0.172146141529083,0.314713627195215
5.344621269,-0.325846672058105,-0.00507760047912598,-0.161859929561615,0.363868757267863
5.349621269,-0.370516777038574,0.0102142095565796,-0.159279584884644,0.403431528645125
5.354621269,-0.405065536499023,0.0140469074249268,-0.157334625720978,0.434775331542863
5.359621269,-0.400821685791016,0.00675845146179199,-0.15197879076004,0.428720483890608
5.364621269,-0.386429786682129,0.00872707366943359,-0.12803065776825,0.4071805388014
5.369621269,-0.356401443481445,-0.00274348258972168,-0.131051003932953,0.379741861327156
5.374621269,-0.289351463317871,-0.0123370885848999,-0.128035724163055,0.316653785293817
5.379621269,-0.223642349243164,-0.0305190086364746,-0.119325459003448,0.255315247154451
5.384621269,-0.152132034301758,-0.0320959091186523,-0.115333497524261,0.193587496740164
5.389621269,-0.0925121307373047,-0.0440715551376343,-0.115967631340027,0.154755574453465
5.394621269,-0.0244483947753906,-0.0636683702468872,-0.11894166469574,0.137107640113824
5.399621269,0.0162563323974609,-0.0620840787887573,-0.113048017024994,0.129994443478745
5.404621269,0.0655298233032227,-0.0754708051681519,-0.11705356836319,0.153920557566027
5.409621269,0.0751476287841797,-0.0805649757385254,-0.116764485836029,0.160536060061864
5.414621269,0.0778179168701172,-0.0712031126022339,-0.121367603540421,0.160796786719746
5.419621269,0.0687837600708008,-0.0599583387374878,-0.137939542531967,0.165389012414868
5.424621269,0.0650529861450195,-0.0604941844940186,-0.127278596162796,0.155213654055153
5.429621269,0.0529861450195313,-0.0657737255096436,-0.138251036405563,0.16200945527549
5.434621269,0.0743379592895508,-0.0564086437225342,-0.162483811378479,0.187374107704421
5.439621269,0.0894908905029297,-0.0622246265411377,-0.156699270009995,0.190880027380699
5.444621269,0.103188514709473,-0.0703717470169067,-0.1547512114048,0.198866763883289
5.449621269,0.127734184265137,-0.0653314590454102,-0.172149658203125,0.224097581848477
5.454621269,0.145124435424805,-0.086458683013916,-0.160621792078018,0.233099905011184
5.459621269,0.161881446838379,-0.0842417478561401,-0.158604323863983,0.241780078709342
5.464621269,0.156207084655762,-0.0883448123931885,-0.145816057920456,0.231231014184736
5.469621269,0.161182403564453,-0.0909465551376343,-0.135081946849823,0.229124803273141
5.474621269,0.153926849365234,-0.0788532495498657,-0.116746038198471,0.208664676826529
5.479621269,0.0902004241943359,-0.0843032598495483,-0.108100593090057,0.16410025707634
5.484621269,0.047795295715332,-0.0747191905975342,-0.0975853204727173,0.131872068717487
5.489621269,0.0155563354492188,-0.081640362739563,-0.0718674957752228,0.109873041961428
5.494621269,-0.0377197265625,-0.0692398548126221,-0.0553565919399262,0.0963394391598075
5.499621269,-0.103305816650391,-0.0596029758453369,-0.0577623844146729,0.132518298874881
5.504621269,-0.175998687744141,-0.0618571043014526,-0.0530279278755188,0.193942776547598
5.509621269,-0.217785835266113,-0.0477128028869629,-0.0438680648803711,0.227225853982854
5.514621269,-0.26679801940918,-0.0311883687973022,-0.0117150545120239,0.268870117363602
5.519621269,-0.290277481079102,-0.0428216457366943,-0.0177924633026123,0.293957958074963
5.524621269,-0.302151679992676,-0.0445449352264404,0.010242760181427,0.30558927192043
5.529621269,-0.311304092407227,-0.040915846824646,0.0185222029685974,0.314527290507
5.534621269,-0.308401107788086,-0.0463581085205078,0.0187667608261108,0.312430006277282
5.539621269,-0.289194107055664,-0.053364634513855,0.0363864898681641,0.296319071977229
5.544621269,-0.248311042785645,-0.0550130605697632,0.0240752696990967,0.255469038072387
5.549621269,-0.210548400878906,-0.0675561428070068,0.0378929674625397,0.224344241126761
5.554621269,-0.174525260925293,-0.0697047710418701,0.0339716970920563,0.190976171315574
5.559621269,-0.127720832824707,-0.0730874538421631,0.0420823991298676,0.153053308892989
5.564621269,-0.10007381439209,-0.0747019052505493,0.0220259130001068,0.126808058965244
5.569621269,-0.0868663787841797,-0.0890353918075562,0.021563708782196,0.12624603872536
5.574621269,-0.0701847076416016,-0.0922093391418457,0.0313661992549896,0.120051213519134
5.579621269,-0.0619850158691406,-0.088886022567749,0.0352601706981659,0.113956776182357
5.584621269,-0.0613117218017578,-0.0926505327224731,0.0325780212879181,0.11577813228365
5.589621269,-0.07830810546875,-0.0754948854446411,0.0181889533996582,0.110283612273897
5.594621269,-0.109898567199707,-0.0794870853424072,0.0152467787265778,0.136485735776003
5.599621269,-0.129337310791016,-0.0925053358078003,0.0212118625640869,0.160422318363136
5.604621269,-0.0355606079101563,-0.0827305316925049,0.0645497441291809,0.110795158631626
5.609621269,0.0370635986328125,-0.0744462013244629,0.150385111570358,0.171847691335339
5.614621269,0.0945472717285156,-0.0579286813735962,0.209081545472145,0.23666434326702
5.619621269,0.158224105834961,-0.0796178579330444,0.221197098493576,0.283376123466844
5.624621269,0.23528003692627,-0.0744500160217285,0.223515838384628,0.332954697624836
5.629621269,0.28849983215332,-0.0635230541229248,0.200381517410278,0.356959499211386
5.634621269,0.325905799865723,-0.0623859167098999,0.175748571753502,0.375491882020433
5.639621269,0.380367279052734,-0.0561516284942627,0.144108727574348,0.410608813494835
5.644621269,0.430477142333984,-0.047806978225708,0.128485009074211,0.451779232364555
5.649621269,0.445896148681641,-0.036198616027832,0.110305935144424,0.460761450795893
5.654621269,0.433738708496094,-0.0333188772201538,0.0799147486686707,0.44229603421447
5.659621269,0.412341117858887,-0.0206634998321533,0.0831058025360107,0.421139824900928
5.664621269,0.291469573974609,-0.00662732124328613,0.0836330354213715,0.303303344118713
5.669621269,0.170078277587891,-0.0152169466018677,0.0510818660259247,0.178234488828168
5.674621269,0.0503854751586914,-0.0351173877716064,0.013764500617981,0.0629395623446087
5.679621269,-0.0466585159301758,-0.0471009016036987,0.0201270580291748,0.069286438107306
5.684621269,-0.0919694900512695,-0.0712656974792481,0.0475046709179878,0.125673706464481
5.689621269,-0.136564254760742,-0.110324263572693,0.0880431607365608,0.196399686770875
5.694621269,-0.0739841461181641,-0.137733936309814,0.146500051021576,0.214258152791333
5.699621269,-0.0106649398803711,-0.177110910415649,0.187934458255768,0.258459621857653
5.704621269,0.062220573425293,-0.226752400398254,0.223068326711655,0.32411036581029
5.709621269,0.138747215270996,-0.248838663101196,0.242570757865906,0.374181830893867
5.714621269,0.181879043579102,-0.268280506134033,0.285007953643799,0.431606244284078
5.719621269,0.181879043579102,-0.277498245239258,0.285680294036865,0.437833864616598
5.724621269,0.132444381713867,-0.28408145904541,0.313782811164856,0.443512617862736
5.729621269,0.0580615997314453,-0.268955707550049,0.344906777143478,0.441213108266995
5.734621269,-0.0630283355712891,-0.23737621307373,0.364595323801041,0.439601851401581
5.739621269,-0.185335159301758,-0.214223861694336,0.377743542194366,0.472155872421586
5.744621269,-0.349468231201172,-0.164286732673645,0.362911939620972,0.529927590403551
5.749621269,-0.485979080200195,-0.143824100494385,0.324699342250824,0.601905890595336
5.754621269,-0.601227760314941,-0.106380105018616,0.293420344591141,0.677412020218918
5.759621269,-0.661724090576172,-0.0960907936096191,0.24989452958107,0.713834356542141
5.764621269,-0.686276435852051,-0.0867381095886231,0.237273991107941,0.731298702936832
5.769621269,-0.668078422546387,-0.0761950016021729,0.231167405843735,0.711036445244367
5.774621269,-0.583157539367676,-0.0955253839492798,0.223550617694855,0.631801150182374
5.779621269,-0.504061698913574,-0.109885931015015,0.216190040111542,0.559366827395141
5.784621269,-0.409369468688965,-0.133017539978027,0.212932676076889,0.480226355355219
5.789621269,-0.375973701477051,-0.152919411659241,0.189453810453415,0.447921105731669
5.794621269,-0.280344009399414,-0.172696828842163,0.117684870958328,0.34966653707605
5.799621269,-0.0939207077026367,-0.181060075759888,0.0754826813936234,0.217489046988375
5.804621269,0.0974311828613281,-0.217299699783325,0.0889222025871277,0.254202976049902
5.809621269,0.1966552734375,-0.223314762115479,0.126217931509018,0.323223987018114
5.814621269,0.209515571594238,-0.227172017097473,0.164501845836639,0.35009249831474
5.819621269,0.200227737426758,-0.231682658195496,0.171487718820572,0.35096444071993
5.824621269,0.184216499328613,-0.240797758102417,0.196165919303894,0.361109881931222
5.829621269,0.135499954223633,-0.254850506782532,0.178535997867584,0.339387862093643
5.834621269,0.0574750900268555,-0.235082745552063,0.155330792069435,0.287567275945663
5.839621269,-0.0174684524536133,-0.232052087783813,0.137102574110031,0.27009338034011
5.844621269,-0.00757884979248047,-0.225362658500671,0.109629839658737,0.250727877497233
5.849621269,0.0899534225463867,-0.214045643806458,0.0874134302139282,0.248089225163236
5.854621269,0.40056037902832,-0.201427221298218,0.0247655510902405,0.449037721408832
5.859621269,0.579181671142578,-0.180960655212402,0.0137392580509186,0.606948872751405
5.864621269,0.779254913330078,-0.174678087234497,0.0402995645999908,0.799609097632036
5.869621269,0.624262809753418,-0.146281838417053,0.0482717454433441,0.6429872419419
5.874621269,0.421798706054688,-0.155132651329041,0.064816415309906,0.454072081977534
5.879621269,0.216923713684082,-0.171608805656433,0.0856810212135315,0.289562976109714
5.884621269,0.0804128646850586,-0.175662636756897,0.103310376405716,0.219081319679095
5.889621269,-0.0218496322631836,-0.1769198179245,0.0643341541290283,0.1895175764724
5.894621269,-0.0808773040771484,-0.165312170982361,0.0681635141372681,0.196253705313378
5.899621269,-0.144952774047852,-0.168190002441406,0.0892235636711121,0.239290676666645
5.904621269,-0.186137199401855,-0.170641779899597,0.0941790640354157,0.269509499185197
5.909621269,-0.196700096130371,-0.172006487846375,0.101341933012009,0.280262996247369
5.914621269,-0.161145210266113,-0.169541716575623,0.0971558392047882,0.253281324899222
5.919621269,-0.0844783782958984,-0.158705592155457,0.0772850811481476,0.195696308470535
5.924621269,-0.0270156860351563,-0.16621196269989,0.0191898941993713,0.169483084335526
5.929621269,-0.015568733215332,-0.15965723991394,-0.0251230597496033,0.162369910519313
5.934621269,-0.0204896926879883,-0.155236721038818,-0.0762144029140472,0.174146209481794
5.939621269,-0.0222291946411133,-0.147550106048584,-0.115137845277786,0.188472529310115
5.944621269,-0.0175333023071289,-0.126545548439026,-0.139898329973221,0.189453781299881
5.949621269,-0.0724191665649414,-0.106431841850281,-0.164477556943893,0.208866319409893
5.954621269,-0.14249324798584,-0.114462375640869,-0.173546850681305,0.252040612878767
5.959621269,-0.236030578613281,-0.090252161026001,-0.198180854320526,0.321140993380785
5.964621269,-0.278805732727051,-0.0746865272521973,-0.218971163034439,0.362296955818174
5.969621269,-0.293012619018555,-0.0749621391296387,-0.248951643705368,0.391730312984084
5.974621269,-0.315718650817871,-0.0901925563812256,-0.265785157680512,0.422439005945346
5.979621269,-0.34904956817627,-0.0893409252166748,-0.258661538362503,0.443534884074149
5.984621269,-0.330618858337402,-0.107572555541992,-0.242604702711105,0.423954863130152
5.989621269,-0.297342300415039,-0.125752806663513,-0.226737171411514,0.394507233012974
5.994621269,-0.271304130554199,-0.14143967628479,-0.203790456056595,0.367616190153632
5.999621269,-0.243351936340332,-0.160691022872925,-0.188400477170944,0.347183682725406
6.004621269,-0.183688163757324,-0.180377840995789,-0.167992562055588,0.307406909377197
6.009621269,-0.105297088623047,-0.207928538322449,-0.174853444099426,0.291368290716116
6.014621269,-0.0371685028076172,-0.222307920455933,-0.146969735622406,0.269076963501748
6.019621269,0.0128564834594727,-0.245547413825989,-0.13266384601593,0.279389544620613
6.024621269,0.035064697265625,-0.260542988777161,-0.1209836602211,0.289394588815617
6.029621269,0.0160865783691406,-0.289985179901123,-0.115356981754303,0.312501865283034
6.034621269,-0.0509061813354492,-0.292192220687866,-0.0964623093605042,0.311885732690397
6.039621269,-0.104513168334961,-0.305634260177612,-0.101448237895966,0.338566165353133
6.044621269,-0.166997909545898,-0.307312548160553,-0.100640475749969,0.363947536615942
6.049621269,-0.204421997070313,-0.302897274494171,-0.079024076461792,0.37387152397963
6.054621269,-0.231392860412598,-0.305085957050324,-0.0921036601066589,0.393831412211213
6.059621269,-0.255268096923828,-0.311643242835999,-0.0849069356918335,0.411694668220305
6.064621269,-0.254528045654297,-0.318326115608215,-0.110767185688019,0.422356971444837
6.069621269,-0.196843147277832,-0.307678878307343,-0.136694312095642,0.389998527876719
6.074621269,-0.0842552185058594,-0.312946498394012,-0.136257946491241,0.351568884693389
6.079621269,0.0174970626831055,-0.320394992828369,-0.153407275676727,0.355658390682102
6.084621269,0.103351593017578,-0.326368153095245,-0.173522472381592,0.383806945684276
6.089621269,0.216458320617676,-0.319767236709595,-0.224660575389862,0.446741160373676
6.094621269,0.302781105041504,-0.303983151912689,-0.250110149383545,0.496625856195171
6.099621269,0.341279983520508,-0.310022830963135,-0.2672398686409,0.532919628331853
6.104621269,0.312619209289551,-0.289479076862335,-0.256340801715851,0.497231849927394
6.109621269,0.263099670410156,-0.278733015060425,-0.246397912502289,0.455659370078235
6.114621269,0.208796501159668,-0.261074602603912,-0.226204872131348,0.403639159642953
6.119621269,0.174031257629395,-0.240862548351288,-0.198833763599396,0.357542321099818
6.124621269,0.163139343261719,-0.26176255941391,-0.169250428676605,0.351823521723605
6.129621269,0.189548492431641,-0.255427002906799,-0.134157538414001,0.345209834608405
6.134621269,0.240947723388672,-0.255099177360535,-0.0987091660499573,0.364520088827054
6.139621269,0.329449653625488,-0.274154543876648,-0.0621908307075501,0.433088313887898
6.144621269,0.419567108154297,-0.287087261676788,-0.0354998111724854,0.509623283078117
6.149621269,0.513017654418945,-0.301101565361023,-0.0269803404808044,0.595463857157456
6.154621269,0.599532127380371,-0.302573621273041,-0.01427161693573,0.671709198315369
6.159621269,0.641449928283691,-0.324853658676147,-0.0283162593841553,0.7195760700551
6.164621269,0.599700927734375,-0.331657707691193,-0.0400570631027222,0.686471125467679
6.169621269,0.527909278869629,-0.340722620487213,-0.0366501808166504,0.629383306564623
6.174621269,0.430580139160156,-0.329823970794678,-0.0368838310241699,0.543639149566114
6.179621269,0.310675621032715,-0.329377412796021,-0.0332207679748535,0.453996080367554
6.184621269,0.139445304870605,-0.29318755865097,-0.0306908488273621,0.326107138529527
6.189621269,-0.0206613540649414,-0.270677506923676,-0.038756787776947,0.274217601377083
6.194621269,-0.193974494934082,-0.246117472648621,-0.0221747756004334,0.314152249237223
6.199621269,-0.31830883026123,-0.229372441768646,-0.0288794040679932,0.393403416920222
6.204621269,-0.416382789611816,-0.204572021961212,-0.0123582482337952,0.46408734733197
6.209621269,-0.462785720825195,-0.195636630058289,-0.0543949604034424,0.505374243642819
6.214621269,-0.424867630004883,-0.178100407123566,-0.0519056916236877,0.463601616548604
6.219621269,-0.396333694458008,-0.154585599899292,-0.0406686067581177,0.427353531206429
6.224621269,-0.342388153076172,-0.143002033233643,-0.0542998313903809,0.375003600735902
6.229621269,-0.259345054626465,-0.146967172622681,-0.0377120971679688,0.300468649713602
6.234621269,-0.213437080383301,-0.147181689739227,-0.020394504070282,0.260064939723359
6.239621269,-0.195048332214355,-0.15256804227829,0.0226428508758545,0.248663544010814
6.244621269,-0.156309127807617,-0.131229162216187,0.108942449092865,0.231348424819128
6.249621269,-0.0910711288452148,-0.130811393260956,0.17419770359993,0.236115249519177
6.254621269,-0.043461799621582,-0.135490715503693,0.195222944021225,0.241575371026029
6.259621269,-0.0190286636352539,-0.117994725704193,0.2206070125103,0.250902967902875
6.264621269,-0.00555992126464844,-0.109161853790283,0.240871131420136,0.264511105625107
6.269621269,0.016596794128418,-0.114346086978912,0.259205907583237,0.28379250114966
6.274621269,0.0583591461181641,-0.0999984741210938,0.261835724115372,0.286292562224745
6.279621269,0.0608367919921875,-0.122263193130493,0.252825707197189,0.28735038171912
6.284621269,0.0248594284057617,-0.112143278121948,0.227420046925545,0.254782228093356
6.289621269,-0.0646190643310547,-0.0986966490745544,0.198235258460045,0.230681316344188
6.294621269,-0.167688369750977,-0.0854147076606751,0.181171208620071,0.261224172823566
6.299621269,-0.257043838500977,-0.0782919526100159,0.140930891036987,0.30341832641303
6.304621269,-0.346736907958984,-0.0768779516220093,0.13921745121479,0.381468480361479
6.309621269,-0.422896385192871,-0.0622289776802063,0.127275109291077,0.445996358412685
6.314621269,-0.475780487060547,-0.0487273931503296,0.127296596765518,0.494920048350116
6.319621269,-0.537156105041504,-0.0554101467132568,0.126950338482857,0.554728180267648
6.324621269,-0.589076995849609,-0.0463998913764954,0.147785142064095,0.609101884066907
6.329621269,-0.607999801635742,-0.0191364884376526,0.162191972136498,0.629552380508844
6.334621269,-0.569243431091309,-0.0344616770744324,0.193986490368843,0.602375671382078
6.339621269,-0.50997257232666,-0.0382004380226135,0.197668746113777,0.548273865126529
6.344621269,-0.46512508392334,-0.0368831753730774,0.207620173692703,0.510693497946159
6.349621269,-0.372082710266113,-0.0209169387817383,0.256343930959702,0.452322089386366
6.354621269,-0.261445045471191,-0.00835925340652466,0.290455609560013,0.390880864258954
6.359621269,-0.191933631896973,-0.00916397571563721,0.342054933309555,0.392331587952695
6.364621269,-0.123405456542969,0.0080639123916626,0.386688262224197,0.405982444853972
6.369621269,-0.0512781143188477,0.00751233100891113,0.394271433353424,0.397662977009236
6.374621269,-0.00345134735107422,0.0297346711158752,0.387002944946289,0.388158913155434
6.379621269,-0.0221548080444336,0.0409668684005737,0.360689550638199,0.363684027372143
6.384621269,-0.0828781127929688,0.0267452001571655,0.328202724456787,0.339560179721399
6.389621269,-0.0748195648193359,0.0164579153060913,0.305959016084671,0.315404105520961
6.394621269,0.0579729080200195,0.00960546731948853,0.330066174268723,0.335256323524425
6.399621269,0.158957481384277,0.00271379947662354,0.350777745246887,0.385123190883284
6.404621269,0.24232006072998,-0.00390082597732544,0.34517052769661,0.421754574919873
6.409621269,0.318489074707031,-0.0222187042236328,0.325886487960815,0.456213726843629
6.414621269,0.413558006286621,-0.0416789650917053,0.295875906944275,0.510205755558459
6.419621269,0.464535713195801,-0.0377479791641235,0.273257166147232,0.540266432064886
6.424621269,0.44902229309082,-0.0554242134094238,0.255372285842896,0.519526580168154
6.429621269,0.450897216796875,-0.0367730259895325,0.27464485168457,0.529235628158606
6.434621269,0.42262077331543,-0.0393955707550049,0.254620432853699,0.494966558324347
6.439621269,0.340523719787598,-0.0345180034637451,0.232777029275894,0.413923956373168
6.444621269,0.213090896606445,-0.0337764024734497,0.21816910803318,0.306832748057603
6.449621269,0.0978755950927734,-0.0181984901428223,0.213125079870224,0.23522992332595
6.454621269,-0.0276412963867188,-0.0143563747406006,0.212625950574875,0.214895187520568
6.459621269,-0.106594085693359,-0.00631970167160034,0.205478891730309,0.231568159902732
6.464621269,-0.16972827911377,-0.0103048086166382,0.198267206549644,0.261196789805209
6.469621269,-0.190309524536133,-0.0180538892745972,0.163870349526405,0.251787905787817
6.474621269,-0.208569526672363,-0.0243609547615051,0.130652666091919,0.247315229474758
6.479621269,-0.265897750854492,-0.0534091591835022,0.107448846101761,0.291718026050442
6.484621269,-0.23527717590332,-0.0667992830276489,0.0868746936321259,0.25954711731731
6.489621269,-0.173946380615234,-0.106677114963532,0.0566896200180054,0.211780696013278
6.494621269,-0.0540733337402344,-0.120857298374176,0.0675263404846191,0.148627785596543
6.499621269,0.066737174987793,-0.137939393520355,0.0647842586040497,0.166367445652661
6.504621269,0.111993789672852,-0.149561107158661,0.0449962615966797,0.192186881075395
6.509621269,-0.0116758346557617,-0.17934513092041,0.0341407954692841,0.182938773951952
6.514621269,0.0680227279663086,-0.15250152349472,0.00184711813926697,0.16699466468606
6.519621269,0.117480278015137,-0.145453661680222,-0.0900242030620575,0.207515639303781
6.524621269,-0.139200210571289,-0.154214471578598,-0.0420812666416168,0.211966117267643
6.529621269,-0.375656127929688,-0.151231676340103,0.00668895244598389,0.405010232543066
6.534621269,-0.505388259887695,-0.136345505714417,0.015967845916748,0.523700641840406
6.539621269,-0.487270355224609,-0.123118340969086,0.000729173421859741,0.50258437764974
6.544621269,-0.465036392211914,-0.130215764045715,-0.0417595207691193,0.484725539725677
6.549621269,-0.476374626159668,-0.14200022816658,-0.0859717130661011,0.504468021479701
6.554621269,-0.391769409179688,-0.14768323302269,-0.124598145484924,0.436827546227705
6.559621269,-0.118785858154297,-0.146846801042557,-0.16810154914856,0.252848163726832
6.564621269,0.147602081298828,-0.153657615184784,-0.217808663845062,0.304692715951649
6.569621269,0.219429016113281,-0.191307857632637,-0.209873378276825,0.358879679577653
6.574621269,0.218305587768555,-0.189040318131447,-0.175968289375305,0.338169203795798
6.579621269,0.187629699707031,-0.178959652781487,-0.199630618095398,0.327236680732725
6.584621269,0.127676010131836,-0.162724956870079,-0.219967186450958,0.301937308504107
6.589621269,0.144979476928711,-0.121445178985596,-0.23206090927124,0.299366407335828
6.594621269,0.155572891235352,-0.114649057388306,-0.231087684631348,0.301245495959078
6.599621269,0.130411148071289,-0.0946919023990631,-0.213579297065735,0.267562590913451
6.604621269,0.0780820846557617,-0.0664380490779877,-0.227645874023438,0.249666718385478
6.609621269,0.0589141845703125,-0.0348191857337952,-0.229043960571289,0.239048933720549
6.614621269,0.103346824645996,-0.0285300314426422,-0.224076271057129,0.248404315802677
6.619621269,0.156362533569336,-0.0151869058609009,-0.246250808238983,0.292094752729661
6.624621269,0.183161735534668,-0.00502687692642212,-0.244371294975281,0.305435460717319
6.629621269,0.179788589477539,0.00747913122177124,-0.23810350894928,0.298451261153501
6.634621269,0.15337085723877,0.0232202708721161,-0.224594354629517,0.272954987060098
6.639621269,0.130392074584961,0.0509384870529175,-0.237347364425659,0.275555065236727
6.644621269,0.0963134765625,0.0722188353538513,-0.240361034870148,0.268822009945745
6.649621269,0.0752696990966797,0.08712038397789,-0.247426509857178,0.272901752809805
6.654621269,0.0788068771362305,0.111496210098267,-0.270508587360382,0.303012911582908
6.659621269,0.0445642471313477,0.14167582988739,-0.270352900028229,0.308461834673818
6.664621269,0.0452613830566406,0.150963962078094,-0.276910603046417,0.318619197039423
6.669621269,0.0832738876342773,0.151142776012421,-0.271150290966034,0.321404977238113
6.674621269,0.16869068145752,0.166948348283768,-0.262762129306793,0.354079417084812
6.679621269,0.255679130554199,0.179282501339912,-0.24126148223877,0.394615174441753
6.684621269,0.317978858947754,0.174336239695549,-0.252226412296295,0.441725980975491
6.689621269,0.3614501953125,0.181346446275711,-0.244067490100861,0.472336444700605
6.694621269,0.386098861694336,0.187971189618111,-0.224190831184387,0.484424429519462
6.699621269,0.40244197845459,0.206366419792175,-0.220479190349579,0.50314780991026
6.704621269,0.387484550476074,0.213682994246483,-0.207610309123993,0.48878087047505
6.709621269,0.343612670898438,0.234785437583923,-0.20509284734726,0.463957913324515
6.714621269,0.266571998596191,0.257465094327927,-0.21916788816452,0.430561805592823
6.719621269,0.173235893249512,0.274759292602539,-0.234856605529785,0.400825359405286
6.724621269,0.073979377746582,0.297082245349884,-0.230641841888428,0.383309885162888
6.729621269,0.00100803375244141,0.317288935184479,-0.239687085151672,0.397647058722998
6.734621269,-0.0323810577392578,0.338709264993668,-0.246247410774231,0.420012245542766
6.739621269,-0.0355587005615234,0.349121689796448,-0.244670987129211,0.427801668316913
6.744621269,-0.0236377716064453,0.366906970739365,-0.240714430809021,0.439457514014002
6.749621269,0.0168275833129883,0.38246476650238,-0.238729655742645,0.451169938833338
6.754621269,0.0838832855224609,0.383953452110291,-0.224766135215759,0.452743276611902
6.759621269,0.142308235168457,0.379871964454651,-0.222012042999268,0.462432363067406
6.764621269,0.188076972961426,0.394390106201172,-0.227169573307037,0.492465753798379
6.769621269,0.209881782531738,0.406169563531876,-0.205580055713654,0.501285583560512
6.774621269,0.202969551086426,0.408629536628723,-0.210427403450012,0.502448434166477
6.779621269,0.165885925292969,0.423460960388184,-0.202085554599762,0.497670469850363
6.784621269,0.120244026184082,0.448924899101257,-0.172882318496704,0.49586337525051
6.789621269,0.0776891708374023,0.461173892021179,-0.164145231246948,0.495641627477434
6.794621269,0.0131330490112305,0.488892138004303,-0.154475331306458,0.51288461427595
6.799621269,-0.0910615921020508,0.490109711885452,-0.143618106842041,0.518773461015011
6.804621269,-0.135643005371094,0.520519256591797,-0.122896373271942,0.551763391275985
6.809621269,-0.190630912780762,0.544103562831879,-0.119986593723297,0.588885060658946
6.814621269,-0.219746589660645,0.549971401691437,-0.0904465317726135,0.599114080501887
6.819621269,-0.217443466186523,0.557013690471649,-0.0760314464569092,0.602765869314434
6.824621269,-0.210148811340332,0.582651138305664,-0.0525804162025452,0.621618510056348
6.829621269,-0.217504501342773,0.595506548881531,-0.036556601524353,0.63503751304956
6.834621269,-0.216873168945313,0.601645767688751,-0.0399739742279053,0.640788201983887
6.839621269,-0.209839820861816,0.594383895397186,-0.0408910512924194,0.631662127725457
6.844621269,-0.188814163208008,0.605874419212341,-0.0175443887710571,0.634856208649787
6.849621269,-0.201394081115723,0.604887962341309,-0.00988960266113281,0.637610247043334
6.854621269,-0.231568336486816,0.611186325550079,0.00016474723815918,0.65358445983999
6.859621269,-0.342020034790039,0.605978906154633,0.00181853771209717,0.695838663758744
6.864621269,-0.387272834777832,0.59711617231369,-0.00354552268981934,0.711716616727862
6.869621269,-0.430871963500977,0.595342397689819,-0.00646311044692993,0.734931963663916
6.874621269,-0.485862731933594,0.591606914997101,-0.00904583930969238,0.765599871579913
6.879621269,-0.40839672088623,0.588756918907166,-0.00399202108383179,0.7165462493266
6.884621269,-0.280029296875,0.604754745960236,0.0229464769363403,0.666836749642314
6.889621269,-0.138151168823242,0.589941501617432,-0.0338079333305359,0.606844046797808
