Time (s),Linear Acceleration x (m/s^2),Linear Acceleration y (m/s^2),Linear Acceleration z (m/s^2),Absolute acceleration (m/s^2)
0.017757671,0,0,0,0
0.022757671,-0.0546112060546875,0.0214982032775879,0.0460207089781761,0.0745819162114115
0.027757671,-0.0952959060668945,0.0378940105438232,0.039803009480238,0.110007023920701
0.032757671,-0.102559089660645,0.0526859760284424,0.023138802498579,0.117599247970206
0.037757671,-0.0892810821533203,0.05755615234375,-0.00783650577068329,0.106514004364585
0.042757671,-0.0794181823730469,0.0520672798156738,-0.0659676939249039,0.115628655447566
0.047757671,-0.0432977676391602,0.0389697551727295,-0.109603717923164,0.12412217160257
0.052757671,-0.000493049621582031,0.0316088199615479,-0.131133288145065,0.134889954618673
0.057757671,0.0141763687133789,-0.00297093391418457,-0.155753538012505,0.156425574896284
0.062757671,0.00600814819335938,-0.0312318801879883,-0.169029489159584,0.171995628986147
0.067757671,0.0211420059204102,-0.0497305393218994,-0.158086746931076,0.16706744300083
0.072757671,0.0340814590454102,-0.0691626071929932,-0.147774964570999,0.166680689458486
0.077757671,0.0688076019287109,-0.0983479022979736,-0.15761461853981,0.198114017543034
0.082757671,0.115108489990234,-0.105395793914795,-0.144185066223145,0.212479578229378
0.087757671,0.147256851196289,-0.115748643875122,-0.149246573448181,0.239492940332694
0.092757671,0.154141426086426,-0.125907182693481,-0.156111270189285,0.252948466233498
0.097757671,0.121166229248047,-0.146912336349487,-0.171400934457779,0.256208450318983
0.102757671,0.0883960723876953,-0.163177728652954,-0.16613008081913,0.249078382231133
0.107757671,0.106064796447754,-0.172029256820679,-0.196019902825356,0.281545038229127
0.112757671,0.0972299575805664,-0.164258480072021,-0.186252102255821,0.26669150440425
0.117757671,0.111598014831543,-0.177653551101685,-0.18809387087822,0.281769773743268
0.122757671,0.0757160186767578,-0.158791065216064,-0.177555158734322,0.24994669885774
0.127757671,0.0628566741943359,-0.156240940093994,-0.155997037887573,0.229558856683694
0.132757671,0.0863151550292969,-0.13208794593811,-0.134604930877686,0.207403034853561
0.137757671,0.147653579711914,-0.104693412780762,-0.0887883827090263,0.201607706165985
0.142757671,0.206364631652832,-0.0914745330810547,-0.0637769177556038,0.234566507920485
0.147757671,0.243858337402344,-0.0823295116424561,-0.0434546172618866,0.261023640632985
0.152757671,0.222908973693848,-0.0739870071411133,-0.0476494804024696,0.239651748922408
0.157757671,0.189706802368164,-0.081453800201416,-0.0538654364645481,0.213365596283755
0.162757671,0.182635307312012,-0.073047399520874,-0.0535603351891041,0.203863404168782
0.167757671,0.177750587463379,-0.0829858779907227,-0.0680611059069634,0.207639691356798
0.172757671,0.195464134216309,-0.0672824382781982,-0.0706129893660545,0.218447587610395
0.177757671,0.214333534240723,-0.0656397342681885,-0.0271341428160667,0.225795704833551
0.182757671,0.201565742492676,-0.0613837242126465,0.020976759493351,0.211746864401057
0.187757671,0.183193206787109,-0.0350263118743897,0.0605465956032276,0.196093048769219
0.192757671,0.172224998474121,0.00472474098205566,0.120834730565548,0.210439552811745
0.197757671,0.147977828979492,0.00646495819091797,0.172475099563599,0.227347517082038
0.202757671,0.165206909179688,0.0431196689605713,0.227555930614471,0.284489596030844
0.207757671,0.183671951293945,0.0703632831573486,0.277706295251846,0.340304516178249
0.212757671,0.203043937683105,0.101181745529175,0.307517260313034,0.382140617637835
0.217757671,0.202705383300781,0.115987062454224,0.329808622598648,0.404123989162106
0.222757671,0.171137809753418,0.150561809539795,0.318318158388138,0.391514314398222
0.227757671,0.146998405456543,0.158366441726685,0.309993743896484,0.377868472258399
0.232757671,0.0978851318359375,0.142952442169189,0.262332409620285,0.314380649681019
0.237757671,0.0436220169067383,0.114476919174194,0.201044499874115,0.235428834921001
0.242757671,-0.0131893157958984,0.0919075012207031,0.135617598891258,0.164356563485696
0.247757671,-0.05535888671875,0.0824723243713379,0.0706300139427185,0.121880636261464
0.252757671,-0.0674772262573242,0.0818736553192139,0.0450282990932465,0.115256319644271
0.257757671,-0.0960912704467773,0.0647516250610352,0.00751841068267822,0.116115596296596
0.262757671,-0.101066589355469,0.076446533203125,0.0281129479408264,0.129803180872608
0.267757671,-0.126253128051758,0.0912883281707764,0.0867838561534882,0.178339140100928
0.272757671,-0.120669364929199,0.117849826812744,0.16921491920948,0.238921255218704
0.277757671,-0.0836477279663086,0.151687145233154,0.285081446170807,0.333582618512638
0.282757671,-0.0582046508789063,0.191208124160767,0.39043402671814,0.438619490388144
0.287757671,-0.0595359802246094,0.23699164390564,0.504371225833893,0.560446166613339
0.292757671,-0.0908012390136719,0.235713243484497,0.582078516483307,0.634524229255122
0.297757671,-0.120768547058105,0.232137203216553,0.6221062541008,0.674899188373388
0.302757671,-0.161439895629883,0.232090950012207,0.635404527187347,0.695462408868181
0.307757671,-0.187885284423828,0.2247633934021,0.614436268806458,0.680699193140003
0.312757671,-0.208127021789551,0.187315464019775,0.603460550308228,0.665258277692387
0.317757671,-0.240217208862305,0.169692516326904,0.552405059337616,0.625820427209553
0.322757671,-0.237602233886719,0.148707151412964,0.525296092033386,0.595402907899235
0.327757671,-0.214136123657227,0.109009981155396,0.498441398143768,0.553336500540094
0.332757671,-0.174208641052246,0.0867106914520264,0.477800875902176,0.515908006956904
0.337757671,-0.121070861816406,0.0499269962310791,0.480832070112228,0.498347607781994
0.342757671,-0.081242561340332,0.0335555076599121,0.496584743261337,0.504304206910254
0.347757671,-0.0905666351318359,-0.00665116310119629,0.515892505645752,0.523824045602294
0.352757671,-0.135842323303223,-0.0221154689788818,0.497484654188156,0.516171688415088
0.357757671,-0.164746284484863,-0.0675880908966065,0.464330971240997,0.497305478691139
0.362757671,-0.195159912109375,-0.107800245285034,0.430248439311981,0.484584361807568
0.367757671,-0.229074478149414,-0.134603261947632,0.400515407323837,0.480630571406094
0.372757671,-0.266533851623535,-0.155269384384155,0.341522365808487,0.460202566415853
0.377757671,-0.309293746948242,-0.148148059844971,0.293853342533112,0.451619592638533
0.382757671,-0.32124137878418,-0.15453839302063,0.245986714959145,0.433113844499285
0.387757671,-0.317531585693359,-0.12523078918457,0.220243602991104,0.406221987503425
0.392757671,-0.294669151306152,-0.0873124599456787,0.231646105647087,0.384854898182049
0.397757671,-0.24622631072998,-0.0340039730072022,0.250562131404877,0.352937739509571
0.402757671,-0.212300300598145,0.0296025276184082,0.301622569561005,0.370032298244416
0.407757671,-0.112738609313965,0.0639410018920898,0.310319870710373,0.336298777741926
0.412757671,-0.0633411407470703,0.0948460102081299,0.354873239994049,0.372750428876232
0.417757671,-0.0399246215820313,0.143324136734009,0.387577831745148,0.415153416509231
0.422757671,-0.0357379913330078,0.156281471252441,0.394443511962891,0.425777860404889
0.427757671,-0.0483150482177734,0.17699933052063,0.413688898086548,0.452550120195652
0.432757671,-0.0701227188110352,0.196455240249634,0.431223928928375,0.479026026428019
0.437757671,-0.0942163467407227,0.189825057983398,0.393738925457001,0.447147195061763
0.442757671,-0.135854721069336,0.190388917922974,0.382581114768982,0.4484113677
0.447757671,-0.18364143371582,0.193234443664551,0.336344987154007,0.429175578032091
0.452757671,-0.245622634887695,0.193961381912231,0.279743582010269,0.419771328366306
0.457757671,-0.302122116088867,0.183056116104126,0.212192490696907,0.41208369026364
0.462757671,-0.327973365783691,0.183069705963135,0.148077189922333,0.403742368448255
0.467757671,-0.30302619934082,0.182806730270386,0.0838061422109604,0.363684819027927
0.472757671,-0.276542663574219,0.204179286956787,0.0340724140405655,0.345435891877867
0.477757671,-0.241360664367676,0.224740028381348,-0.00959695875644684,0.329932041908978
0.482757671,-0.186997413635254,0.24640154838562,-0.0431130826473236,0.312314734920497
0.487757671,-0.137428283691406,0.261449098587036,-0.0524042546749115,0.299980616404414
0.492757671,-0.137632369995117,0.288617134094238,-0.0439119040966034,0.322754976235276
0.497757671,-0.147931098937988,0.330186367034912,-0.0128484219312668,0.362038297635538
0.502757671,-0.161153793334961,0.347761392593384,0.0675021409988403,0.389185136309397
0.507757671,-0.124281883239746,0.3902907371521,0.136030659079552,0.431598408497951
0.512757671,-0.108877182006836,0.425819158554077,0.208082854747772,0.486286614038917
0.517757671,-0.0747537612915039,0.446421384811401,0.273830115795136,0.529020897470538
0.522757671,-0.0616846084594727,0.477652311325073,0.321177154779434,0.57888814652504
0.527757671,-0.0613861083984375,0.473253726959229,0.322727560997009,0.57609931696903
0.532757671,-0.0590057373046875,0.473896741867065,0.290367811918259,0.558903627815464
0.537757671,-0.0474014282226563,0.450270652770996,0.237707138061523,0.511366052480771
0.542757671,-0.0485601425170898,0.420277833938599,0.172604978084564,0.456928904317699
0.547757671,-0.0370302200317383,0.370652675628662,0.117563873529434,0.390609661305926
0.552757671,-0.0294666290283203,0.330461025238037,0.0615702420473099,0.337436906892876
0.557757671,-0.00847244262695313,0.2802734375,0.0201301723718643,0.281123115185953
0.562757671,0.0250921249389648,0.251521825790405,-0.00820766389369965,0.252903557368186
0.567757671,0.0496158599853516,0.226754665374756,-0.0131827145814896,0.232493431724512
0.572757671,0.0885334014892578,0.221537828445435,0.00598844885826111,0.238648348268545
0.577757671,0.138023376464844,0.204536199569702,0.0349349677562714,0.249210676651914
0.582757671,0.168155670166016,0.187051296234131,0.0670554339885712,0.260309331487071
0.587757671,0.207123756408691,0.182409524917603,0.107530042529106,0.296202963009866
0.592757671,0.225760459899902,0.172674894332886,0.128800585865974,0.312048065699031
0.597757671,0.254565238952637,0.17715859413147,0.168850630521774,0.353127687650307
0.602757671,0.269130706787109,0.170150518417358,0.176001071929932,0.363811645737062
0.607757671,0.273861885070801,0.165946245193481,0.195530205965042,0.375194016254363
0.612757671,0.247840881347656,0.148173570632935,0.192841142416,0.347229341659953
0.617757671,0.234825134277344,0.142938137054443,0.205700561404228,0.343346582442555
0.622757671,0.21285343170166,0.13101601600647,0.177774086594582,0.306717142823675
0.627757671,0.203968048095703,0.121841430664063,0.157410621643066,0.285002460824978
0.632757671,0.189774513244629,0.117179393768311,0.155248478055,0.271748902738426
0.637757671,0.18211841583252,0.126335382461548,0.133251398801804,0.258618795778051
0.642757671,0.193690299987793,0.120736122131348,0.112399630248547,0.254414662267502
0.647757671,0.218144416809082,0.117953300476074,0.0716286078095436,0.258129086185395
0.652757671,0.257280349731445,0.112964630126953,0.0480059683322907,0.285059220186219
0.657757671,0.29316520690918,0.117912292480469,0.0184686630964279,0.316528417012867
0.662757671,0.306858062744141,0.118507146835327,-0.00609385967254639,0.329002962977304
0.667757671,0.336005210876465,0.121003150939941,0.000735253095626831,0.357129955157288
0.672757671,0.378470420837402,0.127208471298218,-0.0225189626216888,0.399911188011072
0.677757671,0.428167343139648,0.13448429107666,-0.0257701575756073,0.449530198428458
0.682757671,0.511981010437012,0.15790319442749,-0.0280563533306122,0.536512006222341
0.687757671,0.584211349487305,0.172926902770996,-0.0302256047725678,0.610016558591334
0.692757671,0.655118942260742,0.196269273757935,-0.00112108886241913,0.683888670158044
0.697757671,0.716595649719238,0.204654693603516,0.0390904247760773,0.746271351533516
0.702757671,0.813502311706543,0.224690675735474,0.109366498887539,0.851018767121661
0.707757671,0.897995948791504,0.227765560150146,0.157588720321655,0.939738303576629
0.712757671,1.02002906799316,0.202372074127197,0.156060487031937,1.0515553392714
0.717757671,1.13444805145264,0.117663621902466,0.101249366998672,1.14501901455021
0.722757671,1.23731422424316,0.00651121139526367,-0.012009784579277,1.23738963965032
0.727757671,1.32814645767212,-0.140241384506226,-0.0969962775707245,1.33904777241807
0.732757671,1.35791921615601,-0.231456995010376,-0.082736924290657,1.37998635384052
0.737757671,1.28898334503174,-0.301851511001587,0.00612108409404755,1.32386927834044
0.742757671,1.221510887146,-0.342979192733765,0.0626254975795746,1.27029348066169
0.747757671,1.16345596313477,-0.39501953125,0.108523078262806,1.23346968618546
0.752757671,1.09967994689941,-0.443578958511353,0.134648501873016,1.19339368906634
0.757757671,1.07029056549072,-0.463993072509766,0.140385583043098,1.17495513865077
0.762757671,1.15655708312988,-0.475438356399536,0.152930438518524,1.25978317035086
0.767757671,1.06855392456055,-0.460269927978516,0.150481641292572,1.17315839538453
0.772757671,1.01088237762451,-0.437445640563965,0.128771364688873,1.10897427120923
0.777757671,1.0883960723877,-0.417826652526855,0.106421574950218,1.17068811968246
0.782757671,1.20176029205322,-0.381747007369995,0.124652445316315,1.26708200575777
0.787757671,1.31796312332153,-0.356993675231934,0.110643178224564,1.36993182001101
0.792757671,1.37464046478271,-0.3305504322052,0.144244492053986,1.42116377280629
0.797757671,1.41328477859497,-0.296802997589111,0.179244309663773,1.45519565946747
0.802757671,1.39935970306396,-0.288785219192505,0.207299262285233,1.443806588684
0.807757671,1.38831663131714,-0.282158851623535,0.259313821792603,1.44023621136047
0.812757671,1.36326122283936,-0.260759830474854,0.278242319822311,1.41559020886231
0.817757671,1.31557369232178,-0.252134799957275,0.295992583036423,1.37183005743832
0.822757671,1.21919870376587,-0.252355337142944,0.252479135990143,1.27038356788776
0.827757671,1.13767385482788,-0.264017105102539,0.18892814218998,1.18308946181471
0.832757671,1.05943584442139,-0.250418901443481,0.124365225434303,1.09571010944608
0.837757671,1.00598812103271,-0.224007844924927,0.0507313311100006,1.03187464461679
0.842757671,0.980002403259277,-0.205523729324341,-0.00368097424507141,1.00132824951698
0.847757671,0.941975593566895,-0.191144466400146,-0.0926619172096252,0.965629565005165
0.852757671,0.908721923828125,-0.168460369110107,-0.120727449655533,0.932056622693563
0.857757671,0.882638931274414,-0.145478248596191,-0.11946502327919,0.902489498887911
0.862757671,0.869429588317871,-0.112703084945679,-0.122450590133667,0.885214065310159
0.867757671,0.846715927124023,-0.0935838222503662,-0.0897180140018463,0.85658339644714
0.872757671,0.814579010009766,-0.0666592121124268,-0.0360320508480072,0.81809579072151
0.877757671,0.794078826904297,-0.0470027923583984,-0.00589469075202942,0.795490536214136
0.882757671,0.806674003601074,-0.0118763446807861,0.0297645032405853,0.807310300505278
0.887757671,0.809927940368652,0.0169575214385986,0.0673283040523529,0.812898472534986
0.892757671,0.819598197937012,0.0459880828857422,0.0876903533935547,0.82555781621119
0.897757671,0.835641860961914,0.0919346809387207,0.122781664133072,0.849602637942281
0.902757671,0.829929351806641,0.115973711013794,0.142715275287628,0.850058986445603
0.907757671,0.870732307434082,0.138767957687378,0.151006817817688,0.894558190570983
0.912757671,0.905420303344727,0.142101764678955,0.165912538766861,0.931399918270232
0.917757671,0.906726837158203,0.144137144088745,0.180884718894959,0.935760842875297
0.922757671,0.879156112670898,0.141485452651978,0.193913549184799,0.91133751613559
0.927757671,0.853221893310547,0.12810230255127,0.231518000364304,0.89330755265813
0.932757671,0.823239326477051,0.129201650619507,0.262647688388824,0.873727568179685
0.937757671,0.83057975769043,0.118345499038696,0.306331515312195,0.893144662583434
0.942757671,0.844120979309082,0.116878747940063,0.324410945177078,0.911835144519252
0.947757671,0.850546836853027,0.107772350311279,0.34061986207962,0.922532759101511
0.952757671,0.855578899383545,0.11805248260498,0.368052661418915,0.938836728775086
0.957757671,0.836874485015869,0.119654178619385,0.375799179077148,0.925149203710793
0.962757671,0.801750183105469,0.122480630874634,0.370525926351547,0.891680617232299
0.967757671,0.819103717803955,0.111007213592529,0.369422107934952,0.905387318124648
0.972757671,0.88040828704834,0.113903999328613,0.34815376996994,0.953574286833872
0.977757671,0.924558639526367,0.110723495483398,0.357425630092621,0.997407364832452
0.982757671,0.92645263671875,0.101939678192139,0.339272350072861,0.991872932182849
0.987757671,0.879259586334229,0.0636529922485352,0.34483590722084,0.946604947426143
0.992757671,0.846189975738525,0.0415318012237549,0.369992673397064,0.924476578351643
0.997757671,0.855434417724609,0.0328011512756348,0.400944143533707,0.945304271008455
1.002757671,0.909225463867188,0.028822660446167,0.43529486656189,1.00846582032057
1.007757671,0.979945659637451,0.0282871723175049,0.475381940603256,1.08953276656176
1.012757671,1.04991626739502,0.0384986400604248,0.509973347187042,1.16785235739298
1.017757671,1.12810564041138,0.062150239944458,0.553653120994568,1.25817994207512
1.022757671,1.16433572769165,0.0927848815917969,0.557730436325073,1.29435310508169
1.027757671,1.18793201446533,0.118190050125122,0.530105113983154,1.30620166544502
1.032757671,1.21338701248169,0.148030281066895,0.511131644248962,1.32494398520263
1.037757671,1.27448415756226,0.170543670654297,0.47313067317009,1.37012687199828
1.042757671,1.33329296112061,0.209997653961182,0.419481635093689,1.41341217520716
1.047757671,1.34054946899414,0.236710786819458,0.385402798652649,1.41479333919356
1.052757671,1.3527193069458,0.247010707855225,0.328209668397903,1.4137133371405
1.057757671,1.34488773345947,0.251147031784058,0.267885565757751,1.39411639525724
1.062757671,1.37179279327393,0.27116847038269,0.20947203040123,1.413940005279
1.067757671,1.4189281463623,0.281338214874268,0.1564861536026,1.45499010029524
1.072757671,1.42442989349365,0.278913974761963,0.14794534444809,1.45900012054137
1.077757671,1.44883394241333,0.27043604850769,0.166889995336533,1.48327600923255
1.082757671,1.41918706893921,0.264198064804077,0.182968467473984,1.45511855674383
1.087757671,1.44003820419312,0.260657072067261,0.220697969198227,1.47998639600593
1.092757671,1.3893575668335,0.242994070053101,0.242100536823273,1.43107415479722
1.097757671,1.20342969894409,0.242239952087402,0.251851171255112,1.25313696264636
1.102757671,1.15580654144287,0.248897075653076,0.256682515144348,1.20984479545585
1.107757671,1.16399097442627,0.250836849212647,0.299331516027451,1.22775953262682
1.112757671,1.15319299697876,0.245430946350098,0.334228456020355,1.22547913018579
1.117757671,1.16153573989868,0.25891900062561,0.312138676643372,1.23029869438426
1.122757671,1.20360565185547,0.278088092803955,0.286460489034653,1.26809272701792
1.127757671,1.30246067047119,0.325643301010132,0.273494243621826,1.37012643902354
1.132757671,1.38419532775879,0.385862350463867,0.231561735272408,1.45550929098276
1.137757671,1.40860080718994,0.396026611328125,0.180819675326347,1.47434360509391
1.142757671,1.44856405258179,0.429805040359497,0.177889689803123,1.52141872240644
1.147757671,1.44600343704224,0.458051443099976,0.124496608972549,1.52191868051798
1.152757671,1.46727657318115,0.483751058578491,0.0615459680557251,1.54619000613312
1.157757671,1.46364784240723,0.501019477844238,0.000777602195739746,1.54702492818565
1.162757671,1.38155460357666,0.508051872253418,-0.0566588938236237,1.47309879431537
1.167757671,1.30014181137085,0.505217552185059,-0.0964779406785965,1.39818507278118
1.172757671,1.21188068389893,0.494282484054565,-0.13622735440731,1.31587532013458
1.177757671,1.12870931625366,0.511855125427246,-0.141118854284287,1.24735517037388
1.182757671,1.01416969299316,0.508813619613648,-0.159022867679596,1.1457398213099
1.187757671,0.873000144958496,0.509756803512573,-0.147254124283791,1.02159925065727
1.192757671,0.750319004058838,0.49014949798584,-0.126848801970482,0.905160624855591
1.197757671,0.699684619903565,0.464649200439453,-0.126073107123375,0.849324363914259
1.202757671,0.64533805847168,0.403728008270264,-0.148211687803268,0.775515453601903
1.207757671,0.518142700195313,0.349297761917114,-0.166464596986771,0.646677080385537
1.212757671,0.361166000366211,0.312580108642578,-0.163752675056458,0.504937761241599
1.217757671,-0.301324844360352,0.27528977394104,0.0599387586116791,0.412521243391426
1.222757671,-0.161453247070313,0.30236291885376,0.339882582426071,0.482711772721494
1.227757671,0.657795429229736,0.382571458816528,0.308195233345032,0.820999421238004
1.232757671,0.648330688476563,0.284765720367432,0.160853564739227,0.726152922190769
1.237757671,0.491447448730469,0.262659788131714,0.0448323786258698,0.559035509908214
1.242757671,0.0908956527709961,0.256514549255371,-0.056575171649456,0.277961298959976
1.247757671,-0.17054271697998,0.260319709777832,-0.157620668411255,0.348848741898461
1.252757671,-0.128150463104248,0.311756610870361,-0.245220333337784,0.416830586086843
1.257757671,-0.104864597320557,0.356727838516235,-0.322701305150986,0.492328616769143
1.262757671,-0.0324196815490723,0.43688440322876,-0.344083607196808,0.557057040416742
1.267757671,-0.204081058502197,0.442953109741211,-0.336881548166275,0.592744222547713
1.272757671,-0.357070922851563,0.442955732345581,-0.317933082580566,0.651759825214057
1.277757671,-0.398886680603027,0.469278335571289,-0.280964583158493,0.676959258145191
1.282757671,-0.474997520446777,0.45439600944519,-0.220029801130295,0.693189361730067
1.287757671,-0.561336040496826,0.454681873321533,-0.181568935513496,0.744849672505357
1.292757671,-0.616077423095703,0.447903156280518,-0.121750563383102,0.771357134107409
1.297757671,-0.616115093231201,0.46124267578125,-0.0489338636398315,0.771192023480443
1.302757671,-0.652211666107178,0.461854696273804,0.024148091673851,0.799545463502831
1.307757671,-0.677048683166504,0.47944712638855,0.0726733952760696,0.832794025411258
1.312757671,-0.689410209655762,0.475437164306641,0.123700588941574,0.846539290338041
1.317757671,-0.670014381408691,0.498252630233765,0.151250168681145,0.848558523824616
1.322757671,-0.712872505187988,0.513128042221069,0.178490817546844,0.896296027166899
1.327757671,-0.778990745544434,0.512367248535156,0.196138456463814,0.95279434985697
1.332757671,-0.939891815185547,0.514365196228027,0.193158611655235,1.08870493183418
1.337757671,-1.08691358566284,0.509300231933594,0.202704429626465,1.21731547050724
1.342757671,-1.24305534362793,0.468331813812256,0.198943749070168,1.34316785639202
1.347757671,-1.47263622283936,0.420564413070679,0.228121355175972,1.54840925567092
1.352757671,-1.7100715637207,0.37072491645813,0.219936102628708,1.76356275929397
1.357757671,-1.96994018554688,0.312961101531982,0.209201827645302,2.00558579731576
1.362757671,-2.22162866592407,0.236919403076172,0.218112230300903,2.24484691634338
1.367757671,-2.45286273956299,0.171936988830566,0.224345341324806,2.46909472872928
1.372757671,-2.58028554916382,0.125857830047607,0.22178490459919,2.59285600304298
1.377757671,-2.59836864471436,0.115043640136719,0.229821741580963,2.61104819677346
1.382757671,-2.61606550216675,0.119330406188965,0.254072785377502,2.6310817998948
1.387757671,-2.60887145996094,0.132358551025391,0.251425802707672,2.62429876631748
1.392757671,-2.60867643356323,0.158470630645752,0.219718679785728,2.62270508712898
1.397757671,-2.57856750488281,0.162461757659912,0.206969067454338,2.59195686592629
1.402757671,-2.57424640655518,0.178722858428955,0.195668056607246,2.58785092502712
1.407757671,-2.52990245819092,0.183371543884277,0.230407074093819,2.54698233029981
1.412757671,-2.48065900802612,0.175724029541016,0.267001926898956,2.50116734298748
1.417757671,-2.52515983581543,0.155038833618164,0.317923992872238,2.54981271892445
1.422757671,-2.65185356140137,0.110430717468262,0.37337052822113,2.6802850232432
1.427757671,-2.77552366256714,0.0561618804931641,0.439834356307983,2.81071877271268
1.432757671,-2.84240055084229,0.00865745544433594,0.46066015958786,2.87950058614247
1.437757671,-2.9131646156311,-0.0692920684814453,0.499198853969574,2.95643856089114
1.442757671,-3.0475926399231,-0.124053001403809,0.551145195960999,3.09951142490258
1.447757671,-3.16726493835449,-0.172099113464355,0.578738391399384,3.22430200512676
1.452757671,-3.16379880905151,-0.187947273254395,0.602612257003784,3.22615694193118
1.457757671,-3.07682609558105,-0.180563926696777,0.641981840133667,3.14826981644428
1.462757671,-3.03302812576294,-0.174554347991943,0.66013503074646,3.10893986607824
1.467757671,-2.91188383102417,-0.150627136230469,0.656218767166138,2.98870859234052
1.472757671,-2.87410593032837,-0.161982536315918,0.677557587623596,2.95733114908803
1.477757671,-2.87069177627563,-0.186647415161133,0.684775590896606,2.95713140422449
1.482757671,-2.87905979156494,-0.211699962615967,0.661537230014801,2.96166062611387
1.487757671,-2.89846038818359,-0.246197700500488,0.65236634016037,2.981152087931
1.492757671,-2.88914155960083,-0.28730297088623,0.651906967163086,2.97567885403122
1.497757671,-2.94224071502686,-0.326930046081543,0.668919205665588,3.0349821389756
1.502757671,-3.01509237289429,-0.406486988067627,0.715822637081146,3.12544648591388
1.507757671,-3.04043340682983,-0.484230995178223,0.754868507385254,3.16994344137245
1.512757671,-2.96804809570313,-0.544848918914795,0.782838046550751,3.11753191643277
1.517757671,-2.76656293869019,-0.563287258148193,0.808665037155151,2.9368524258538
1.522757671,-2.68631172180176,-0.560147285461426,0.831424117088318,2.86728124023009
1.527757671,-2.66091203689575,-0.615059852600098,0.856374740600586,2.86218957910126
1.532757671,-2.56486511230469,-0.664166927337647,0.901317596435547,2.79857538067697
1.537757671,-2.39386081695557,-0.730162620544434,0.952598094940186,2.67790033307425
1.542757671,-2.18593978881836,-0.751504421234131,1.01813352108002,2.52580433173682
1.547757671,-2.059645652771,-0.734897136688232,1.08222699165344,2.43996501572344
1.552757671,-1.77362442016602,-0.765054225921631,1.06544458866119,2.20595188612925
1.557757671,-1.67357635498047,-0.803011894226074,1.01715159416199,2.11666796728361
1.562757671,-1.80825805664063,-0.848145008087158,0.945051908493042,2.20958599377694
1.567757671,-2.25904846191406,-0.913616180419922,0.883865833282471,2.59214453486789
1.572757671,-2.85985279083252,-0.969989776611328,0.828195512294769,3.1313808389508
1.577757671,-3.33164405822754,-1.02190160751343,0.710211277008057,3.55647790435296
1.582757671,-3.55347537994385,-1.09066343307495,0.651277542114258,3.77371122861518
1.587757671,-3.55523490905762,-1.12935972213745,0.566158533096314,3.77302055721488
1.592757671,-3.22730255126953,-1.11122846603394,0.527538597583771,3.45378161340517
1.597757671,-2.8560266494751,-1.07861328125,0.497079819440842,3.09311868183169
1.602757671,-2.39622592926025,-1.04784822463989,0.496527343988419,2.66203381069218
1.607757671,-2.08721351623535,-1.01380491256714,0.547352313995361,2.38408372729166
1.612757671,-1.82084560394287,-0.96061897277832,0.608272016048431,2.14668636967941
1.617757671,-1.58599662780762,-0.922707080841065,0.669970750808716,1.95336490891758
1.622757671,-1.55570507049561,-0.941338300704956,0.716579079627991,1.95443639960484
1.627757671,-1.61495780944824,-0.966050148010254,0.754668354988098,2.02752705056898
1.632757671,-1.63902378082275,-0.976323127746582,0.785845637321472,2.0632884358646
1.637757671,-1.74306392669678,-0.973881244659424,0.802623271942139,2.15195739918663
1.642757671,-1.72081756591797,-0.995995044708252,0.772101581096649,2.13292289494655
1.647757671,-1.63971614837646,-1.00768232345581,0.70918196439743,2.05110501215283
1.652757671,-1.51469707489014,-0.986199140548706,0.605365335941315,1.90613828550268
1.657757671,-1.47769069671631,-0.966665744781494,0.487234681844711,1.83177785020133
1.662757671,-1.35893726348877,-0.938866853713989,0.375725209712982,1.69391584451974
1.667757671,-1.32668209075928,-0.906022071838379,0.190222635865212,1.61775956674508
1.672757671,-1.23796272277832,-0.881546020507813,-0.00787925720214844,1.51978194881895
1.677757671,-1.07545375823975,-0.829622507095337,-0.206720247864723,1.37390230776005
1.682757671,-0.900518417358398,-0.782778978347778,-0.413408726453781,1.26276804047814
1.687757671,-0.904139518737793,-0.758477926254273,-0.586783289909363,1.31798014525077
1.692757671,-0.999880790710449,-0.720442533493042,-0.768809378147125,1.45253808887223
1.697757671,-1.03559494018555,-0.697542667388916,-0.92450362443924,1.55361822999321
1.702757671,-1.00428867340088,-0.670968770980835,-1.0544753074646,1.60334431897998
1.707757671,-0.869035720825195,-0.626086950302124,-1.17608797550201,1.59072023924045
1.712757671,-0.809994697570801,-0.596126317977905,-1.27168142795563,1.62130553915231
1.717757671,-0.870524406433106,-0.571008920669556,-1.35313177108765,1.70728718135137
1.722757671,-0.884066581726074,-0.564531087875366,-1.40923178195953,1.75675931344832
1.727757671,-0.841624259948731,-0.507663726806641,-1.46827375888824,1.76688474029555
1.732757671,-0.92699146270752,-0.520560503005981,-1.4954833984375,1.83487520126701
1.737757671,-1.05423545837402,-0.523648262023926,-1.53078627586365,1.93104285980044
1.742757671,-1.35569000244141,-0.54640531539917,-1.54262948036194,2.12512584688479
1.747757671,-1.78989601135254,-0.611453771591187,-1.55520856380463,2.44872969581783
1.752757671,-1.95921230316162,-0.639801740646362,-1.60110342502594,2.60986422900192
1.757757671,-1.75175189971924,-0.610292434692383,-1.65901613235474,2.48865949889212
1.762757671,-1.37491130828857,-0.573987007141113,-1.67251551151276,2.23989962415225
1.767757671,-1.11205101013184,-0.547106266021729,-1.65945684909821,2.07117834806045
1.772757671,-0.957399368286133,-0.538498878479004,-1.66767382621765,1.99693029001246
1.777757671,-0.859148025512695,-0.500380516052246,-1.7409496307373,2.00484952237105
1.782757671,-0.959585189819336,-0.477286338806152,-1.82592833042145,2.11721993509584
1.787757671,-1.17966938018799,-0.452283382415772,-1.93372106552124,2.30986087542154
1.792757671,-1.3223352432251,-0.364489078521729,-2.02018666267395,2.44183884314312
1.797757671,-1.3292932510376,-0.286552906036377,-2.11143517494202,2.51143218367417
1.802757671,-1.15139675140381,-0.199426174163818,-2.22531366348267,2.51346497468485
1.807757671,-0.900640487670898,-0.0994691848754883,-2.33063864707947,2.50058471362845
1.812757671,-0.616837501525879,0.00389909744262695,-2.46441650390625,2.54044334929458
1.817757671,-0.520608901977539,0.0632433891296387,-2.62076306343079,2.67272003579312
1.822757671,-0.59812593460083,0.113691806793213,-2.7232346534729,2.79046366011989
1.827757671,-0.690080642700195,0.149676322937012,-2.84969997406006,2.93588219062607
1.832757671,-0.858828067779541,0.168856620788574,-2.94557213783264,3.07286404313078
1.837757671,-1.00412940979004,0.203909397125244,-3.01241159439087,3.18189857284323
1.842757671,-1.10658884048462,0.227102279663086,-3.09335875511169,3.29317213263131
1.847757671,-1.09437036514282,0.27816915512085,-3.10641765594482,3.30527687616775
1.852757671,-1.16538000106812,0.31278657913208,-3.11146950721741,3.33724264705436
1.857757671,-1.26695966720581,0.356382846832275,-3.12357783317566,3.38953300791553
1.862757671,-1.30405187606812,0.407782077789307,-3.13060426712036,3.41577525545156
1.867757671,-1.27454900741577,0.427559375762939,-3.14970088005066,3.42460184925185
1.872757671,-1.36840438842773,0.415190696716309,-3.17044425010681,3.47802107928394
1.877757671,-1.49380922317505,0.409402370452881,-3.22213268280029,3.57508256152849
1.882757671,-1.60394954681396,0.405023097991943,-3.25455617904663,3.65086753816162
1.887757671,-1.75925064086914,0.411512851715088,-3.30425620079041,3.76595468440434
1.892757671,-1.88372421264648,0.4135422706604,-3.33639645576477,3.85369633325893
1.897757671,-1.98176002502441,0.400560855865479,-3.38721609115601,3.94475026385988
1.902757671,-2.11109018325806,0.413851737976074,-3.40590000152588,4.02841530173694
1.907757671,-2.25218820571899,0.432923316955566,-3.40238428115845,4.1031686668985
1.912757671,-2.25924444198608,0.464345932006836,-3.40875673294067,4.11575327948417
1.917757671,-2.22531652450562,0.491984367370605,-3.37414479255676,4.07172387731692
1.922757671,-2.15845251083374,0.52309513092041,-3.27466630935669,3.95676448568182
1.927757671,-2.09808015823364,0.570239543914795,-3.16729021072388,3.84172367131801
1.932757671,-1.99526929855347,0.560037136077881,-3.02940893173218,3.67043044385738
1.937757671,-1.95182704925537,0.576248168945313,-2.87840414047241,3.52518101355185
1.942757671,-1.9578857421875,0.558766841888428,-2.69962596893311,3.38134844924227
1.947757671,-1.97901773452759,0.530243396759033,-2.541672706604,3.26462392947135
1.952757671,-2.03870439529419,0.479591846466064,-2.41844010353088,3.19924623699944
1.957757671,-2.02413082122803,0.460787296295166,-2.22940015792847,3.04625271079793
1.962757671,-1.9881443977356,0.405306339263916,-2.11309862136841,2.92953531443538
1.967757671,-2.03729486465454,0.371438503265381,-1.9763890504837,2.86263001558491
1.972757671,-2.22695779800415,0.311177730560303,-1.87998497486115,2.93095822552827
1.977757671,-2.44576835632324,0.246468067169189,-1.80964457988739,3.05243228695446
1.982757671,-2.63218593597412,0.198384761810303,-1.71065080165863,3.14548652524118
1.987757671,-2.6488356590271,0.163908004760742,-1.60238921642303,3.10013667173997
1.992757671,-2.63059759140015,0.127773761749268,-1.49222445487976,3.02706188338015
1.997757671,-2.60038471221924,0.0827193260192871,-1.40241158008575,2.9556050782199
2.002757671,-2.63044786453247,0.00618743896484375,-1.32231664657593,2.94411541319905
2.007757671,-2.74881362915039,-0.0889081954956055,-1.24106884002686,3.01730556966225
2.012757671,-2.91050052642822,-0.171539783477783,-1.14756536483765,3.13326434860347
2.017757671,-3.00981092453003,-0.25093412399292,-1.05051255226135,3.19773456660541
2.022757671,-3.01094961166382,-0.309191226959229,-0.954405009746552,3.17368960382649
2.027757671,-2.93037557601929,-0.34562349319458,-0.852380752563477,3.07133677132923
2.032757671,-2.81144905090332,-0.367536067962647,-0.744955122470856,2.93160138176632
2.037757671,-2.63357448577881,-0.389883518218994,-0.645600914955139,2.73943867814464
2.042757671,-2.42919826507568,-0.431697845458984,-0.542954564094544,2.52629509350981
2.047757671,-2.21004199981689,-0.45258617401123,-0.47630563378334,2.30564241430334
2.052757671,-1.99612188339233,-0.452090740203857,-0.392761915922165,2.08402268061907
2.057757671,-1.7969856262207,-0.472626209259033,-0.330502033233643,1.88726375170349
2.062757671,-1.6427755355835,-0.493575572967529,-0.276700407266617,1.73749573292235
2.067757671,-1.5352668762207,-0.527361869812012,-0.22517928481102,1.63885955263412
2.072757671,-1.44076347351074,-0.563672542572022,-0.138086348772049,1.55325270370585
2.077757671,-1.37086009979248,-0.629199504852295,-0.0916500389575958,1.51114167428152
2.082757671,-1.35175228118896,-0.674095153808594,-0.0219268500804901,1.51066849203995
2.087757671,-1.36108207702637,-0.733698844909668,0.0454249680042267,1.54690718633743
2.092757671,-1.35502624511719,-0.805796146392822,0.11534371972084,1.58073012502987
2.097757671,-1.32840728759766,-0.861956119537354,0.173272147774696,1.59300267135523
2.102757671,-1.28916931152344,-0.910489082336426,0.228883370757103,1.59478383495594
2.107757671,-1.25895500183105,-0.959267616271973,0.302118480205536,1.61134652770447
2.112757671,-1.18385028839111,-0.998571395874023,0.35874605178833,1.58976258216604
2.117757671,-1.08566188812256,-1.02739429473877,0.417013496160507,1.55180573145082
2.122757671,-0.983104705810547,-1.05538702011108,0.46083328127861,1.51416773771594
2.127757671,-0.905651092529297,-1.11283588409424,0.517702758312225,1.52532742461788
2.132757671,-0.833914756774902,-1.1616702079773,0.56019914150238,1.53581072134849
2.137757671,-0.758820533752441,-1.22446584701538,0.591838777065277,1.55736904778205
2.142757671,-0.660062789916992,-1.25562858581543,0.621091961860657,1.54856102793457
2.147757671,-0.531316757202148,-1.27814149856567,0.631862938404083,1.52157614326992
2.152757671,-0.366296768188477,-1.2891583442688,0.624611735343933,1.47859473112566
2.157757671,-0.225210189819336,-1.31431913375855,0.640290021896362,1.47923146501902
2.162757671,-0.151796340942383,-1.33429002761841,0.641598701477051,1.48829462831204
2.167757671,-0.0582084655761719,-1.36118650436401,0.652148246765137,1.51046822571224
2.172757671,0.080693244934082,-1.35241842269897,0.640494167804718,1.49859259601315
2.177757671,0.229043006896973,-1.34252595901489,0.633799254894257,1.50217780077519
2.182757671,0.339190483093262,-1.3490002155304,0.634234309196472,1.52875927610727
2.187757671,0.442891120910645,-1.34725856781006,0.610592901706696,1.54404724187238
2.192757671,0.513421058654785,-1.36515092849731,0.633556067943573,1.59016713972947
2.197757671,0.586621284484863,-1.35751581192017,0.653234958648682,1.61669094827202
2.202757671,0.656336784362793,-1.35573220252991,0.65170681476593,1.64119150372424
2.207757671,0.730201721191406,-1.35280299186707,0.662492871284485,1.67396753043126
2.212757671,0.829280853271484,-1.3520143032074,0.672936260700226,1.72293140334874
2.217757671,0.932380199432373,-1.34321284294128,0.66733980178833,1.76603963397961
2.222757671,0.987522125244141,-1.34951639175415,0.696116983890533,1.81134571375006
2.227757671,1.03443622589111,-1.36842751502991,0.691176056861877,1.8494259949795
2.232757671,1.05912971496582,-1.38544034957886,0.701079368591309,1.87955127528598
2.237757671,1.07216882705688,-1.39789509773254,0.707430958747864,1.89845075242213
2.242757671,1.07722854614258,-1.38908219337463,0.707643449306488,1.89492214402632
2.247757671,1.06419515609741,-1.40177702903748,0.69663393497467,1.89282566781958
2.252757671,0.927329063415527,-1.44613122940063,0.69087165594101,1.85163127255012
2.257757671,0.754343032836914,-1.48492383956909,0.627112627029419,1.77969167764811
2.262757671,0.644730567932129,-1.53468608856201,0.579024493694305,1.76244383171487
2.267757671,0.489851951599121,-1.58500862121582,0.516082406044006,1.73739699367822
2.272757671,0.272099494934082,-1.66230964660645,0.446939945220947,1.74271822477942
2.277757671,0.0831117630004883,-1.7402491569519,0.419745206832886,1.7920827916366
2.282757671,-0.0889005661010742,-1.78706049919128,0.392199873924255,1.8317503322039
2.287757671,-0.207817077636719,-1.83837032318115,0.365317821502686,1.88580234744209
2.292757671,-0.302136421203613,-1.89300155639648,0.374720752239227,1.95324267608917
2.297757671,-0.288529396057129,-1.91072034835815,0.378080636262894,1.96902169351583
2.302757671,-0.237542152404785,-1.91546535491943,0.368551731109619,1.9650099690764
2.307757671,-0.163434982299805,-1.91755151748657,0.368995815515518,1.95955931972532
2.312757671,-0.0650148391723633,-1.91101694107056,0.346085250377655,1.94319007791318
2.317757671,0.014744758605957,-1.91019606590271,0.338073670864105,1.93993820134252
2.322757671,0.091064453125,-1.88730812072754,0.295380175113678,1.91245238503793
2.327757671,0.159724235534668,-1.85633611679077,0.270152598619461,1.88267842088335
2.332757671,0.226177215576172,-1.82965207099915,0.232639908790588,1.85819917148818
2.337757671,0.302792549133301,-1.77827167510986,0.192438066005707,1.81410195070638
2.342757671,0.388788223266602,-1.75387716293335,0.167604446411133,1.80425403856184
2.347757671,0.461464881896973,-1.71133685112,0.140035927295685,1.77798585938107
2.352757671,0.512121200561523,-1.67506122589111,0.126999795436859,1.75619679494908
2.357757671,0.580498695373535,-1.64351558685303,0.122341305017471,1.74730924981029
2.362757671,0.648379325866699,-1.59333729743958,0.126662999391556,1.72486608437823
2.367757671,0.724563598632813,-1.53427362442017,0.127457350492477,1.70153852123591
2.372757671,0.807853698730469,-1.48539400100708,0.153958112001419,1.69785925124298
2.377757671,0.891006469726563,-1.45106744766235,0.158158481121063,1.71011794093579
2.382757671,0.959245681762695,-1.41221570968628,0.183241784572601,1.71699826449489
2.387757671,0.98784351348877,-1.39257669448853,0.20998227596283,1.7202317324689
2.392757671,1.0169734954834,-1.36431932449341,0.216300547122955,1.71533910244813
2.397757671,1.0397424697876,-1.33662533760071,0.226961225271225,1.70854999762162
2.402757671,1.06341648101807,-1.3276526927948,0.222618699073792,1.71553938164166
2.407757671,1.07902050018311,-1.30143165588379,0.234665364027023,1.70677398264262
2.412757671,1.08337497711182,-1.26749992370605,0.227969110012054,1.6829222539222
2.417757671,1.0570068359375,-1.25605154037476,0.217284560203552,1.65594127413965
2.422757671,0.987601280212402,-1.2580885887146,0.213051646947861,1.61354708329143
2.427757671,0.927065849304199,-1.28407454490662,0.218660771846771,1.59878424403291
2.432757671,0.862747192382813,-1.2614426612854,0.205365121364594,1.54199388414751
2.437757671,0.794458389282227,-1.2602276802063,0.204233378171921,1.50367855973894
2.442757671,0.747588157653809,-1.26193499565125,0.213662713766098,1.48223471217193
2.447757671,0.695769309997559,-1.25020098686218,0.231943875551224,1.44944658462855
2.452757671,0.649574279785156,-1.23335385322571,0.247133672237396,1.41569188885811
2.457757671,0.60106086730957,-1.21061372756958,0.248478829860687,1.37426398209361
2.462757671,0.553380012512207,-1.18666410446167,0.273050874471664,1.33751931392245
2.467757671,0.514762878417969,-1.17105507850647,0.267858952283859,1.30694270578765
2.472757671,0.468411445617676,-1.14415407180786,0.264889448881149,1.26438294932695
2.477757671,0.414897918701172,-1.09996032714844,0.247934252023697,1.20146760154805
2.482757671,0.367192268371582,-1.06387543678284,0.226383447647095,1.14800286250093
2.487757671,0.325311660766602,-1.02655863761902,0.198124825954437,1.09494463776047
2.492757671,0.278132438659668,-0.970763444900513,0.200414925813675,1.02951710130468
2.497757671,0.230532646179199,-0.920601844787598,0.18497559428215,0.966886253941355
2.502757671,0.192415237426758,-0.863890647888184,0.166519477963448,0.900588369702763
2.507757671,0.179553031921387,-0.807260513305664,0.131392240524292,0.837360584506269
2.512757671,0.183711051940918,-0.751195669174194,0.129216760396957,0.784054625111535
2.517757671,0.194571495056152,-0.69645881652832,0.153714165091515,0.73928410936405
2.522757671,0.167096138000488,-0.633329629898071,0.140095725655556,0.669816655353137
2.527757671,0.128479957580566,-0.57651686668396,0.120794013142586,0.602884724206947
2.532757671,0.121529579162598,-0.523528337478638,0.114955633878708,0.549605455317758
2.537757671,0.110122680664063,-0.467169761657715,0.128101155161858,0.496774090465442
2.542757671,0.108461380004883,-0.39201021194458,0.120890557765961,0.424323466447901
2.547757671,0.115758895874023,-0.340481758117676,0.0984189808368683,0.372846141690972
2.552757671,0.0955057144165039,-0.273303508758545,0.0747858434915543,0.299013497642969
2.557757671,0.0668039321899414,-0.217239856719971,0.0418094396591187,0.231092946556924
2.562757671,0.0411663055419922,-0.157148838043213,0.00865192711353302,0.162681522777132
2.567757671,0.0235538482666016,-0.0990977287292481,-0.0203243046998978,0.103866361104046
2.572757671,-0.0262327194213867,-0.0647077560424805,-0.0344482660293579,0.0778584118302177
2.577757671,-0.0611257553100586,-0.0103163719177246,-0.050080418586731,0.0796921189176958
2.582757671,-0.119641304016113,0.0379042625427246,-0.0701744556427002,0.143788834651141
2.587757671,-0.177815437316895,0.0682997703552246,-0.0976191908121109,0.21403900297279
2.592757671,-0.224508285522461,0.120538711547852,-0.108494788408279,0.276956080203357
2.597757671,-0.252494812011719,0.158437728881836,-0.134923294186592,0.327200915860926
2.602757671,-0.298164367675781,0.189707279205322,-0.151106655597687,0.384348882268314
2.607757671,-0.340703010559082,0.225884914398193,-0.15632888674736,0.437654266274613
2.612757671,-0.404952049255371,0.265361309051514,-0.167336314916611,0.512254066677395
2.617757671,-0.483213424682617,0.301476001739502,-0.18248225748539,0.598065855667504
2.622757671,-0.553823471069336,0.336963176727295,-0.200377851724625,0.678539536828337
2.627757671,-0.585174560546875,0.379247188568115,-0.209901720285416,0.728228280504695
2.632757671,-0.590950965881348,0.412096500396729,-0.227293401956558,0.755452751857
2.637757671,-0.55693531036377,0.464910984039307,-0.234734058380127,0.76250851875503
2.642757671,-0.526759147644043,0.502374172210693,-0.230165749788284,0.763433874613028
2.647757671,-0.490188598632813,0.544912338256836,-0.252816885709763,0.775326187042664
2.652757671,-0.463665962219238,0.596305370330811,-0.275156944990158,0.803913903090607
2.657757671,-0.444414138793945,0.642468452453613,-0.291658729314804,0.833867167805299
2.662757671,-0.442136764526367,0.680882453918457,-0.286375850439072,0.860869886983257
2.667757671,-0.434877395629883,0.72411584854126,-0.308174550533295,0.8991293927655
2.672757671,-0.413498878479004,0.779102325439453,-0.307467699050903,0.934086795735929
2.677757671,-0.388826370239258,0.823543071746826,-0.312989860773087,0.963001448681356
2.682757671,-0.33207893371582,0.877750396728516,-0.315512716770172,0.990086082933498
2.687757671,-0.292270660400391,0.905988216400147,-0.316912710666657,1.00332968328904
2.692757671,-0.276303291320801,0.915490627288818,-0.334050804376602,1.01294448878161
2.697757671,-0.290958404541016,0.923572063446045,-0.311096549034119,1.01706598230989
2.702757671,-0.319323539733887,0.890191555023193,-0.329674690961838,1.00154577005925
2.707757671,-0.35605525970459,0.837282180786133,-0.332539647817612,0.968710181424737
2.712757671,-0.404553413391113,0.780411243438721,-0.341854095458984,0.943169865800457
2.717757671,-0.499809265136719,0.715112209320068,-0.371958404779434,0.948444952710065
2.722757671,-0.636858940124512,0.613175868988037,-0.36558073759079,0.956673001408097
2.727757671,-0.804242134094238,0.529423236846924,-0.389713943004608,1.03873544819561
2.732757671,-0.986236572265625,0.423819541931152,-0.417678087949753,1.15184224863926
2.737757671,-1.09527397155762,0.341965198516846,-0.417862951755524,1.22113664928136
2.742757671,-1.2675838470459,0.278415679931641,-0.424448847770691,1.36544532094747
2.747757671,-1.48239707946777,0.181358337402344,-0.457249194383621,1.56187988447396
2.752757671,-1.65823650360107,0.141115188598633,-0.499708920717239,1.73763367939642
2.757757671,-1.75906753540039,0.0863833427429199,-0.546636521816254,1.84406945720231
2.762757671,-1.78355979919434,0.0565862655639648,-0.570045650005341,1.87329645433995
2.767757671,-1.72779560089111,0.040280818939209,-0.597081661224365,1.82849848044879
2.772757671,-1.62666606903076,0.0412836074829102,-0.596721827983856,1.73315428521964
2.777757671,-1.51418209075928,0.0471978187561035,-0.600587725639343,1.62962592464041
2.782757671,-1.38207340240479,0.0523576736450195,-0.568963050842285,1.49552237323553
2.787757671,-1.2183313369751,0.0753636360168457,-0.521327257156372,1.32732551898296
2.792757671,-1.02861404418945,0.110734462738037,-0.45772910118103,1.13129346467204
2.797757671,-0.85047721862793,0.142411708831787,-0.389719307422638,0.946294738860716
2.802757671,-0.654390335083008,0.184247016906738,-0.32816419005394,0.754894303543775
2.807757671,-0.492080688476563,0.233628273010254,-0.251256465911865,0.599879475881482
2.812757671,-0.335389137268066,0.258575439453125,-0.184450715780258,0.46191903818488
2.817757671,-0.216629028320313,0.300989151000977,-0.131375402212143,0.393423564670056
2.822757671,-0.0675764083862305,0.324770927429199,-0.0962806940078735,0.345416702422223
2.827757671,0.0564556121826172,0.352538108825684,-0.0526149421930313,0.360885974323303
2.832757671,0.166304588317871,0.37360954284668,-0.0293470621109009,0.410003117861587
2.837757671,0.277190208435059,0.396812915802002,-0.0183222591876984,0.484386836094148
2.842757671,0.35700511932373,0.397573471069336,-0.0179560631513596,0.53463982298868
2.847757671,0.387021064758301,0.367696285247803,-0.0160500109195709,0.53408189035222
2.852757671,0.397838592529297,0.336402893066406,-0.0467162355780602,0.523091635218653
2.857757671,0.372456550598145,0.306686401367188,-0.0451353639364243,0.484579850947909
2.862757671,0.340044975280762,0.266139984130859,-0.0635545998811722,0.436463358751824
2.867757671,0.282663345336914,0.219444751739502,-0.0610969327390194,0.363025344918483
2.872757671,0.243156433105469,0.168314933776855,-0.0550055727362633,0.300799901803385
2.877757671,0.209399223327637,0.139699459075928,0.000365771353244782,0.251722282257664
2.882757671,0.108482360839844,0.0679936408996582,-0.0191139653325081,0.12944845107961
2.887757671,-0.031306266784668,0.00815200805664063,-0.0330736264586449,0.0462644825160113
2.892757671,-0.0999288558959961,-0.0486726760864258,-0.0527712404727936,0.123043120324276
2.897757671,-0.18181324005127,-0.119727611541748,-0.0717868208885193,0.229225004911577
2.902757671,-0.264845848083496,-0.168749809265137,-0.0698740109801292,0.321717576120015
2.907757671,-0.338249206542969,-0.226662635803223,-0.077482596039772,0.414478019785458
2.912757671,-0.386608123779297,-0.269376754760742,-0.0920225083827972,0.480101884423129
2.917757671,-0.440852165222168,-0.302085399627686,-0.0949026793241501,0.542782404644987
2.922757671,-0.452988624572754,-0.317821502685547,-0.0960476323962212,0.561635423785336
2.927757671,-0.449807167053223,-0.337709903717041,-0.0898058116436005,0.569595953642566
2.932757671,-0.407503128051758,-0.330802440643311,-0.0993375480175018,0.534188171484233
2.937757671,-0.35413932800293,-0.321905136108398,-0.0898270010948181,0.486935797017452
2.942757671,-0.295017242431641,-0.313650608062744,-0.0829017236828804,0.438502648862799
2.947757671,-0.265266418457031,-0.314631938934326,-0.0793170258402824,0.419107051177551
2.952757671,-0.219797134399414,-0.301460266113281,-0.0878120511770248,0.383275395332391
2.957757671,-0.183250427246094,-0.296049118041992,-0.0866263657808304,0.358789529707476
2.962757671,-0.141800880432129,-0.282166481018066,-0.075968325138092,0.32480240012311
2.967757671,-0.110336303710938,-0.264594078063965,-0.0631591007113457,0.293552717694416
2.972757671,-0.0769195556640625,-0.238930702209473,-0.0729015320539475,0.261379287392252
2.977757671,-0.04095458984375,-0.222888946533203,-0.0634547397494316,0.235336492947054
2.982757671,0.0108165740966797,-0.188736438751221,-0.0617942586541176,0.198889346095497
2.987757671,0.0285577774047852,-0.184631824493408,-0.0666711032390595,0.198367067007554
2.992757671,0.0368576049804688,-0.171689987182617,-0.0788212344050407,0.192480445076371
2.997757671,0.0283241271972656,-0.150093555450439,-0.071061298251152,0.168463763695283
3.002757671,0.0389719009399414,-0.139741897583008,-0.0752980187535286,0.163451517677809
3.007757671,0.0503292083740234,-0.13948392868042,-0.0906718298792839,0.173810748543748
3.012757671,0.0464677810668945,-0.116157531738281,-0.109976708889008,0.166573417311611
3.017757671,0.0398950576782227,-0.113389015197754,-0.116013787686825,0.167056527343618
3.022757671,0.0122222900390625,-0.116021633148193,-0.114742703735828,0.163634628953596
3.027757671,-0.000269889831542969,-0.118248462677002,-0.126060485839844,0.172841019020871
3.032757671,-0.0112724304199219,-0.112775325775146,-0.121084786951542,0.165851944282733
3.037757671,-0.0189018249511719,-0.12584114074707,-0.125420942902565,0.17867200287
3.042757671,-0.00890254974365234,-0.117122173309326,-0.124663800001144,0.171283162930171
3.047757671,0.0111188888549805,-0.115184307098389,-0.11171680688858,0.160846819155635
3.052757671,-0.00255680084228516,-0.100215435028076,-0.109536170959473,0.148485162211167
3.057757671,-0.00533103942871094,-0.0917930603027344,-0.0958229899406433,0.132802226270106
3.062757671,-0.00165843963623047,-0.0843296051025391,-0.0882213115692139,0.122054219647538
3.067757671,0.008392333984375,-0.0886154174804688,-0.0975659042596817,0.132069031793803
3.072757671,0.00272083282470703,-0.0698919296264648,-0.0967943966388702,0.11942127104856
3.077757671,0.0361719131469727,-0.0727353096008301,-0.0646165013313294,0.103798481721759
3.082757671,0.0368337631225586,-0.0611171722412109,-0.0762711763381958,0.104447724669055
3.087757671,0.0499858856201172,-0.0582780838012695,-0.0725956708192825,0.105664824963073
3.092757671,0.0665121078491211,-0.0571498870849609,-0.0693379193544388,0.111793189169822
3.097757671,0.0669164657592773,-0.0529246330261231,-0.0594630986452103,0.103993703036061
3.102757671,0.0628299713134766,-0.056694507598877,-0.0743971467018127,0.112680113260959
3.107757671,0.0536012649536133,-0.0571918487548828,-0.0611294656991959,0.0994022874248777
3.112757671,0.0556364059448242,-0.043459415435791,-0.0713422894477844,0.10036858432861
3.117757671,0.0641212463378906,-0.0327563285827637,-0.0725091248750687,0.102186518114156
3.122757671,0.0640459060668945,-0.027946949005127,-0.0585774779319763,0.0911824049008131
3.127757671,0.0843076705932617,-0.0195040702819824,-0.0524511486291885,0.101189500794043
3.132757671,0.137078285217285,0.00167369842529297,-0.0393224060535431,0.142616651069817
3.137757671,0.200839996337891,0.0119180679321289,-0.0163417160511017,0.201855879665997
3.142757671,0.253373146057129,0.0331234931945801,0.00721658766269684,0.255630976373741
3.147757671,0.321610450744629,0.0413346290588379,0.0218800753355026,0.324993186519783
3.152757671,0.366030693054199,0.0523014068603516,0.0360592007637024,0.371502585962772
3.157757671,0.387613296508789,0.0589513778686523,0.0484282672405243,0.395050160930157
3.162757671,0.397356986999512,0.013667106628418,0.0652818977832794,0.402915736971279
3.167757671,0.377047538757324,-0.000752925872802734,0.0757120251655579,0.384574731534712
3.172757671,0.318331718444824,-0.0177459716796875,0.0955556631088257,0.33283762892897
3.177757671,0.274283409118652,-0.035210132598877,0.100869134068489,0.294356457654843
3.182757671,0.246663093566895,-0.0461249351501465,0.105941787362099,0.272385487278731
3.187757671,0.22441291809082,-0.0592455863952637,0.105565711855888,0.254981012691134
3.192757671,0.229928970336914,-0.0482802391052246,0.0973614305257797,0.254317834691705
3.197757671,0.248851776123047,-0.0482993125915527,0.110616140067577,0.276579031236754
3.202757671,0.260229110717773,-0.0438508987426758,0.128465622663498,0.293505549507712
3.207757671,0.284384727478027,-0.0433707237243652,0.151175677776337,0.324976581387431
3.212757671,0.298577308654785,-0.0401387214660645,0.16320925951004,0.342632147636909
3.217757671,0.336777687072754,-0.0288791656494141,0.171749919652939,0.379145422785863
3.222757671,0.350192070007324,-0.0322465896606445,0.164213210344315,0.38812408697779
3.227757671,0.35301685333252,-0.0217280387878418,0.186046868562698,0.399632886169726
3.232757671,0.326401710510254,-0.0234832763671875,0.196422323584557,0.381669058341534
3.237757671,0.296064376831055,-0.0460715293884277,0.196485176682472,0.358305910786428
3.242757671,0.262411117553711,-0.0520443916320801,0.203969061374664,0.336409856149017
3.247757671,0.214085578918457,-0.0807013511657715,0.202131479978561,0.305290809522913
3.252757671,0.131317138671875,-0.117137908935547,0.184662237763405,0.255079639866747
3.257757671,0.0407991409301758,-0.134159564971924,0.189554393291473,0.235784280201617
3.262757671,-0.0172348022460938,-0.159832954406738,0.177616655826569,0.239564789044346
3.267757671,-0.0538673400878906,-0.185111045837402,0.15370674431324,0.246563486482766
3.272757671,-0.0839815139770508,-0.202888488769531,0.143332034349442,0.262222626094339
3.277757671,-0.111903190612793,-0.207596302032471,0.130658701062202,0.269611284723288
3.282757671,-0.104269981384277,-0.198859214782715,0.142494261264801,0.265935764453142
3.287757671,-0.0954437255859375,-0.179158210754395,0.157918393611908,0.257187457461295
3.292757671,-0.0736827850341797,-0.149938583374023,0.138891577720642,0.217259296593566
3.297757671,-0.0578250885009766,-0.132181644439697,0.140894666314125,0.201660692706082
3.302757671,-0.029688835144043,-0.107967376708984,0.135456740856171,0.175746721189915
3.307757671,-0.0230932235717773,-0.0994977951049805,0.145048320293427,0.177403842758925
3.312757671,0.00628662109375,-0.069361686706543,0.143006637692451,0.159064337963143
3.317757671,0.0284023284912109,-0.0390405654907227,0.15243424475193,0.1598970199555
3.322757671,0.0311965942382813,-0.013150691986084,0.159397125244141,0.162952789874482
3.327757671,0.0439338684082031,0.00669193267822266,0.151454642415047,0.157840031251102
3.332757671,0.0602636337280273,0.0247697830200195,0.15303897857666,0.166331526370535
3.337757671,0.0961875915527344,0.0445828437805176,0.126105278730392,0.16474897284033
3.342757671,0.0923986434936523,0.065948486328125,0.114213429391384,0.161032355822607
3.347757671,0.0911741256713867,0.0909543037414551,0.115627199411392,0.173075289411159
3.352757671,0.0595626831054688,0.0758504867553711,0.111794508993626,0.147644917964944
3.357757671,0.0306644439697266,0.0718159675598145,0.0965086668729782,0.124144126329538
3.362757671,-0.00434207916259766,0.0703182220458984,0.0810906141996384,0.107420639145488
3.367757671,-0.0430507659912109,0.0525541305541992,0.0805950611829758,0.105408106793669
3.372757671,-0.0798330307006836,0.0647597312927246,0.0762375891208649,0.127981661119568
3.377757671,-0.127739906311035,0.0293030738830566,0.0556278005242348,0.142374878382782
3.382757671,-0.160138130187988,-0.00438117980957031,0.0335055030882359,0.163664395070598
3.387757671,-0.207293510437012,-0.009124755859375,0.0336033292114735,0.210197631701424
3.392757671,-0.249998092651367,-0.030189037322998,0.0211636312305927,0.252702045086057
3.397757671,-0.301371574401855,-0.0610122680664063,0.0213001072406769,0.308222350390955
3.402757671,-0.315226554870605,-0.0687718391418457,0.028344988822937,0.323883906895534
3.407757671,-0.352569580078125,-0.0749368667602539,0.0199164114892483,0.36099516096884
3.412757671,-0.379895210266113,-0.093930721282959,0.0150421895086765,0.391624333576307
3.417757671,-0.410409927368164,-0.106303691864014,0.0140051133930683,0.42418501457196
3.422757671,-0.448262214660645,-0.117416381835938,0.0283721573650837,0.464252731956913
3.427757671,-0.465388298034668,-0.145932674407959,0.0358754843473434,0.489049755939639
3.432757671,-0.510480880737305,-0.163720607757568,0.0236734077334404,0.536614943172994
3.437757671,-0.545825004577637,-0.180622100830078,0.0319450385868549,0.575820948230232
3.442757671,-0.575794219970703,-0.201725482940674,0.0388472527265549,0.611343817555817
3.447757671,-0.596042633056641,-0.221077919006348,0.0393869690597057,0.636940813596507
3.452757671,-0.630344390869141,-0.243278503417969,0.0314432717859745,0.676392756219403
3.457757671,-0.674581527709961,-0.271476268768311,0.0165282934904099,0.727346400635608
3.462757671,-0.700348854064941,-0.273903846740723,0.0247228518128395,0.752411492503405
3.467757671,-0.705604553222656,-0.287216186523438,0.013708982616663,0.7619441315044
3.472757671,-0.734067916870117,-0.307380676269531,-0.0058230459690094,0.795847029639682
3.477757671,-0.757317543029785,-0.306373596191406,0.00180072709918022,0.816944235576708
3.482757671,-0.771871566772461,-0.3203125,0.00775146484375,0.835730757155226
3.487757671,-0.797091484069824,-0.339815139770508,-0.00972946360707283,0.866558610629406
3.492757671,-0.818303108215332,-0.362387657165527,0.00385799258947372,0.894963504891464
3.497757671,-0.846877098083496,-0.372200012207031,0.0182340331375599,0.92523842781723
3.502757671,-0.884276390075684,-0.385671138763428,0.0308988019824028,0.965215881181153
3.507757671,-0.919132232666016,-0.407005310058594,0.0420797690749168,1.00609546788906
3.512757671,-0.955601692199707,-0.413378238677979,0.0404273867607117,1.04196474793908
3.517757671,-0.964374542236328,-0.434471130371094,0.0515122525393963,1.05897919384714
3.522757671,-0.947818756103516,-0.431130409240723,0.065763384103775,1.04334013959134
3.527757671,-0.938660621643066,-0.44742488861084,0.0781148821115494,1.04277261585596
3.532757671,-0.932529449462891,-0.447537899017334,0.0945617407560349,1.03867380249394
3.537757671,-0.91622257232666,-0.432287693023682,0.102993071079254,1.01830448504902
3.542757671,-0.889944076538086,-0.423707008361816,0.0906447246670723,0.989820465746246
3.547757671,-0.860311508178711,-0.397492408752441,0.111915804445744,0.954285729436045
3.552757671,-0.831780433654785,-0.380326271057129,0.0858731269836426,0.918629934307125
3.557757671,-0.781998634338379,-0.344422340393066,0.108214229345322,0.861312331330354
3.562757671,-0.731632232666016,-0.333248138427734,0.104782000184059,0.810752313104305
3.567757671,-0.668295860290527,-0.311399459838867,0.113950774073601,0.746038711717674
3.572757671,-0.605291366577148,-0.284632682800293,0.0765363946557045,0.673239349917856
3.577757671,-0.557451248168945,-0.253121376037598,0.10204241424799,0.62067300521115
3.582757671,-0.506155967712402,-0.227665424346924,0.102722622454166,0.564426564096521
3.587757671,-0.46946907043457,-0.219393730163574,0.10636593401432,0.529007116066056
3.592757671,-0.429550170898438,-0.220637321472168,0.110476180911064,0.495377798749585
3.597757671,-0.397429466247559,-0.210695743560791,0.106732979416847,0.462314617864989
3.602757671,-0.373497009277344,-0.234288692474365,0.126294285058975,0.458629974815238
3.607757671,-0.355956077575684,-0.236386775970459,0.129586160182953,0.446515408387814
3.612757671,-0.338491439819336,-0.247035503387451,0.125387981534004,0.43740729380982
3.617757671,-0.314065933227539,-0.24119234085083,0.124224364757538,0.415021503658066
3.622757671,-0.289352416992188,-0.258160591125488,0.122442126274109,0.406649463685872
3.627757671,-0.256329536437988,-0.2642822265625,0.117185637354851,0.38637080651831
3.632757671,-0.231278419494629,-0.28770112991333,0.0894009619951248,0.379808082435056
3.637757671,-0.235769271850586,-0.320444107055664,0.108117625117302,0.412263260740832
3.642757671,-0.213605880737305,-0.329239845275879,0.093320444226265,0.403404329814929
3.647757671,-0.224146842956543,-0.346954822540283,0.0835308283567429,0.42142241916788
3.652757671,-0.244217872619629,-0.371331691741943,0.0770220160484314,0.451067606412781
3.657757671,-0.278626441955566,-0.393811702728272,0.0805840194225311,0.489095221351477
3.662757671,-0.31197452545166,-0.413166522979736,0.0459758192300797,0.519758074680741
3.667757671,-0.319789886474609,-0.431221485137939,0.0453220009803772,0.53876861871204
3.672757671,-0.355642318725586,-0.441570281982422,0.0664953887462616,0.570865491620455
3.677757671,-0.350336074829102,-0.44318962097168,0.0705775320529938,0.569327316659208
3.682757671,-0.329578399658203,-0.449738502502441,0.0656364262104034,0.561422107331083
3.687757671,-0.310857772827148,-0.465580940246582,0.0692389011383057,0.564085270396938
3.692757671,-0.269217491149902,-0.466005325317383,0.0581402778625488,0.541312583148722
3.697757671,-0.231340408325195,-0.483186721801758,0.0605941414833069,0.53912841015077
3.702757671,-0.196645736694336,-0.469118118286133,0.0632872879505158,0.512588173371676
3.707757671,-0.169201850891113,-0.473944664001465,0.0395492613315582,0.504793972777322
3.712757671,-0.160769462585449,-0.480313777923584,0.0225600600242615,0.507007989751186
3.717757671,-0.148336410522461,-0.490594387054443,0.0223430395126343,0.513016329867458
3.722757671,-0.142794609069824,-0.497668743133545,-0.00745537877082825,0.517803110210959
3.727757671,-0.121674537658691,-0.496292114257813,-0.0276053547859192,0.511734903442986
3.732757671,-0.0946283340454102,-0.487478256225586,-0.0607026815414429,0.500274312196089
3.737757671,-0.0616922378540039,-0.479165077209473,-0.0741192400455475,0.488772713204741
3.742757671,-0.0441694259643555,-0.478150367736816,-0.0742655396461487,0.485895135534209
3.747757671,-0.0197572708129883,-0.460939884185791,-0.108182072639465,0.473876869475351
3.752757671,0.00384521484375,-0.428956985473633,-0.126522898674011,0.447243697499132
3.757757671,0.0277547836303711,-0.423952102661133,-0.123667180538177,0.442492129768911
3.762757671,0.057499885559082,-0.414840221405029,-0.141204744577408,0.441969937920954
3.767757671,0.0760059356689453,-0.398021221160889,-0.147363036870956,0.43117706268672
3.772757671,0.0803966522216797,-0.379662036895752,-0.158146470785141,0.419067047344551
3.777757671,0.0755424499511719,-0.362040042877197,-0.143355637788773,0.396649080771624
3.782757671,0.06976318359375,-0.337728500366211,-0.127978980541229,0.367839722168661
3.787757671,0.0828456878662109,-0.331325531005859,-0.138664573431015,0.368602603652152
3.792757671,0.11247730255127,-0.313768863677979,-0.144854784011841,0.363434934828914
3.797757671,0.139604568481445,-0.282545566558838,-0.144070714712143,0.34652244308358
3.802757671,0.162078857421875,-0.259596824645996,-0.147325277328491,0.339653948496674
3.807757671,0.204058647155762,-0.232577800750732,-0.156943410634995,0.34693457455669
3.812757671,0.237422943115234,-0.207290649414063,-0.171414613723755,0.358778534823459
3.817757671,0.262707710266113,-0.171839237213135,-0.165126770734787,0.354698343515381
3.822757671,0.293415069580078,-0.140380859375,-0.19468566775322,0.379080068012106
3.827757671,0.314023017883301,-0.111954212188721,-0.203269749879837,0.390464841699665
3.832757671,0.321189880371094,-0.103258609771729,-0.204729065299034,0.394638150617757
3.837757671,0.301104545593262,-0.0992317199707031,-0.237505972385407,0.396131251662888
3.842757671,0.250234603881836,-0.0891537666320801,-0.259732842445374,0.371519717551222
3.847757671,0.199313163757324,-0.0845837593078613,-0.287770509719849,0.360127777115326
3.852757671,0.128776550292969,-0.0709075927734375,-0.32010293006897,0.352245897714964
3.857757671,0.0868167877197266,-0.043853759765625,-0.327861547470093,0.341984650510863
3.862757671,0.0459175109863281,-0.0223298072814941,-0.331294119358063,0.335205655724426
3.867757671,0.00341796875,-0.00181722640991211,-0.323223680257797,0.323246859693324
3.872757671,0.00548076629638672,0.0618462562561035,-0.316590666770935,0.322621525163087
3.877757671,0.0340213775634766,0.112963199615479,-0.300530195236206,0.322856836457578
3.882757671,0.0678243637084961,0.165713310241699,-0.273078471422195,0.326546929334831
3.887757671,0.119987487792969,0.221942901611328,-0.251447528600693,0.356204307163627
3.892757671,0.167904853820801,0.299061298370361,-0.228110089898109,0.411902795854646
3.897757671,0.19278621673584,0.362569808959961,-0.247944414615631,0.479687215247258
3.902757671,0.226293563842773,0.421314716339111,-0.184759765863419,0.512690002167464
3.907757671,0.300327301025391,0.477561950683594,-0.176178261637688,0.5910166531965
3.912757671,0.367214202880859,0.538822650909424,-0.151269689202309,0.669371824027458
3.917757671,0.396337509155273,0.601360321044922,-0.121272787451744,0.730359326542062
3.922757671,0.432913780212402,0.66435718536377,-0.124153971672058,0.802620096636141
3.927757671,0.429036140441895,0.723377704620361,-0.0912929773330689,0.845979740335096
3.932757671,0.433494567871094,0.757688999176025,-0.0920784622430801,0.877774802016533
3.937757671,0.423029899597168,0.795682907104492,-0.0878404080867767,0.905417871429705
3.942757671,0.393296241760254,0.830426216125488,-0.0807625651359558,0.922394832020744
3.947757671,0.358334541320801,0.87033224105835,-0.0792915225028992,0.944546980763829
3.952757671,0.317142486572266,0.890818119049072,-0.0762931928038597,0.948660597518192
3.957757671,0.237092971801758,0.9354248046875,-0.0811655074357987,0.968411318655326
3.962757671,0.211149215698242,0.969458103179932,-0.0690103396773338,0.9945830443425
3.967757671,0.182939529418945,0.993744850158691,-0.0566915050148964,1.01203242308821
3.972757671,0.199728012084961,1.03085851669312,-0.0466384291648865,1.05106408145513
3.977757671,0.200288772583008,1.05974006652832,-0.0434153601527214,1.0793745848988
3.982757671,0.204585075378418,1.075758934021,-0.0149143189191818,1.09514144022697
3.987757671,0.178642272949219,1.10996675491333,-0.00830350071191788,1.1242811956185
3.992757671,0.16207218170166,1.12422752380371,-0.00212115049362183,1.13585184625407
3.997757671,0.146279335021973,1.14173126220703,0.0133925005793571,1.1511417280366
4.002757671,0.13259220123291,1.15959215164185,0.033079594373703,1.16761676484242
4.007757671,0.102006912231445,1.17474937438965,0.0452987253665924,1.18003960835715
4.012757671,0.0544319152832031,1.17739343643188,0.07453703135252,1.18100546425371
4.017757671,0.0178451538085938,1.17673492431641,0.082237645983696,1.17974004002464
4.022757671,-0.00940799713134766,1.18885374069214,0.115612842142582,1.19449908180626
4.027757671,-0.0185470581054688,1.2035059928894,0.099506177008152,1.2077550031144
4.032757671,0.00466537475585938,1.21170330047607,0.125516951084137,1.21819586237833
4.037757671,0.0254430770874023,1.2148745059967,0.123000778257847,1.22135032113823
4.042757671,0.0563211441040039,1.23840308189392,0.134298488497734,1.24693638511767
4.047757671,0.103964805603027,1.25519227981567,0.121044889092445,1.2652937229309
4.052757671,0.156712532043457,1.26406097412109,0.135512441396713,1.28092645603436
4.057757671,0.184581756591797,1.26821041107178,0.13367372751236,1.28852502383322
4.062757671,0.245807647705078,1.275221824646,0.150638222694397,1.30740352449437
4.067757671,0.321908950805664,1.27957653999329,0.163578063249588,1.32954852378034
4.072757671,0.341508865356445,1.27803301811218,0.187202095985413,1.33605438708284
4.077757671,0.386680603027344,1.29132580757141,0.216416969895363,1.36524010156318
4.082757671,0.422337532043457,1.27447938919067,0.229411467909813,1.36209262755986
4.087757671,0.418456077575684,1.23714876174927,0.2556112408638,1.33078159515891
4.092757671,0.393424034118652,1.19212412834167,0.268991440534592,1.28386089709028
4.097757671,0.352729797363281,1.14828300476074,0.295820415019989,1.23712646358927
4.102757671,0.322713851928711,1.07958316802979,0.314296990633011,1.16979769415094
4.107757671,0.292316436767578,1.02348589897156,0.312288284301758,1.10927735806256
4.112757671,0.273740768432617,0.974599838256836,0.338696718215942,1.0674709925626
4.117757671,0.250588417053223,0.920499801635742,0.349556595087051,1.01602374615042
4.122757671,0.241091728210449,0.856734275817871,0.352279633283615,0.957193700772791
4.127757671,0.20665168762207,0.788771629333496,0.36123862862587,0.891828991483214
4.132757671,0.195294380187988,0.731874465942383,0.356562197208405,0.837207697832231
4.137757671,0.193107604980469,0.678214073181152,0.365395545959473,0.794215827825965
4.142757671,0.20470142364502,0.629649639129639,0.370821118354797,0.758860753179584
4.147757671,0.220499992370605,0.575503826141357,0.375768333673477,0.721821820902167
4.152757671,0.224264144897461,0.524006843566895,0.38688051700592,0.688878881393745
4.157757671,0.204372406005859,0.463868618011475,0.391513973474503,0.640488381267211
4.162757671,0.195093154907227,0.410473823547363,0.401683866977692,0.606547630363353
4.167757671,0.225528717041016,0.354836463928223,0.439851522445679,0.608474716106621
4.172757671,0.258467674255371,0.319334030151367,0.467124372720718,0.622081137021064
4.177757671,0.282116889953613,0.279521942138672,0.496369451284409,0.635692604882627
4.182757671,0.30314826965332,0.217864036560059,0.540127873420715,0.656583377390891
4.187757671,0.317381858825684,0.165210247039795,0.560469567775726,0.664944964971768
4.192757671,0.331377029418945,0.129142284393311,0.600131809711456,0.697600640963291
4.197757671,0.310020446777344,0.082420825958252,0.637669742107391,0.713812699502447
4.202757671,0.281238555908203,0.0276451110839844,0.646855652332306,0.705890651907525
4.207757671,0.239051818847656,-0.0263023376464844,0.677905678749085,0.71930083716085
4.212757671,0.191038131713867,-0.0794053077697754,0.687736093997955,0.718179438342746
4.217757671,0.152705192565918,-0.149208545684814,0.680769324302673,0.713462640124548
4.222757671,0.0979394912719727,-0.211036682128906,0.692075133323669,0.73013465560783
4.227757671,0.0478830337524414,-0.260687351226807,0.687292575836182,0.736628647834524
4.232757671,0.0243539810180664,-0.310177326202393,0.678460836410523,0.746399488628147
4.237757671,-0.0174932479858398,-0.34780740737915,0.678477704524994,0.762632284846639
4.242757671,-0.0493974685668945,-0.407867431640625,0.672819137573242,0.788341007165515
4.247757671,-0.0553264617919922,-0.434593677520752,0.668622493743897,0.7993677007834
4.252757671,-0.0752801895141602,-0.462201595306397,0.671676099300385,0.81880779430123
4.257757671,-0.0806312561035156,-0.485141277313232,0.652774691581726,0.817299367663748
4.262757671,-0.0968990325927734,-0.505115509033203,0.659106135368347,0.836033490754698
4.267757671,-0.11601734161377,-0.544009208679199,0.653269469738007,0.85800177317688
4.272757671,-0.166999816894531,-0.569231986999512,0.663277626037598,0.889860215465491
4.277757671,-0.212077140808105,-0.57724666595459,0.662550508975983,0.903971019421178
4.282757671,-0.251243591308594,-0.605785369873047,0.661134481430054,0.931234696014732
4.287757671,-0.268325805664063,-0.610838890075684,0.631273210048676,0.91849265284994
4.292757671,-0.255926132202148,-0.627362728118897,0.647822380065918,0.937419870650824
4.297757671,-0.227560997009277,-0.615382671356201,0.650957345962524,0.924243098880335
4.302757671,-0.158390998840332,-0.605125427246094,0.645077407360077,0.898548469866709
4.307757671,-0.0639266967773438,-0.570026874542236,0.639034509658814,0.858709709270911
4.312757671,0.0234851837158203,-0.533333778381348,0.66144871711731,0.850006399030516
4.317757671,0.109330177307129,-0.486858367919922,0.674528479576111,0.839030886107847
4.322757671,0.223019599914551,-0.437466144561768,0.677361249923706,0.836619765772952
4.327757671,0.338545799255371,-0.384689807891846,0.679608941078186,0.851156753649254
4.332757671,0.462375640869141,-0.327766895294189,0.698546648025513,0.899549770934116
4.337757671,0.599367141723633,-0.268911838531494,0.690559387207031,0.953114271606556
4.342757671,0.748300552368164,-0.188779354095459,0.690803825855255,1.03576121139163
4.347757671,0.889090538024902,-0.122976303100586,0.679850459098816,1.12596705221182
4.352757671,1.00053310394287,-0.0711665153503418,0.675342559814453,1.20922236916516
4.357757671,1.08554792404175,-0.0156822204589844,0.674347519874573,1.27804726242454
4.362757671,1.16686344146729,0.0241150856018066,0.6459881067276,1.3339611922466
4.367757671,1.23484563827515,0.0666384696960449,0.616270244121552,1.38169224134762
4.372757671,1.31951236724854,0.116068124771118,0.56982421875,1.44197237739971
4.377757671,1.36471748352051,0.163764715194702,0.563103556632996,1.48538153592337
4.382757671,1.39276313781738,0.194792985916138,0.530665278434753,1.50310981074613
4.387757671,1.41230773925781,0.22094988822937,0.502119481563568,1.51510922947547
4.392757671,1.44857311248779,0.249272584915161,0.478397518396378,1.54575711850881
4.397757671,1.48790740966797,0.298433542251587,0.460678517818451,1.58592425281445
4.402757671,1.5078330039978,0.30211329460144,0.451896965503693,1.60282365784618
4.407757671,1.52526044845581,0.315167903900147,0.447509586811066,1.62049840282558
4.412757671,1.54867267608643,0.318213939666748,0.422384202480316,1.63647657592764
4.417757671,1.54067516326904,0.32454776763916,0.439076572656631,1.63456399350088
4.422757671,1.51586818695068,0.305312633514404,0.427702009677887,1.60436940056683
4.427757671,1.49102354049683,0.285895586013794,0.436035394668579,1.57956144224327
4.432757671,1.43090438842773,0.2585768699646,0.453180134296417,1.52306322935831
4.437757671,1.37743949890137,0.220484018325806,0.448512256145477,1.4653040706227
4.442757671,1.31499147415161,0.189367055892944,0.476126611232758,1.41129692441845
4.447757671,1.27955627441406,0.172346830368042,0.478199243545532,1.37682322970591
4.452757671,1.24829053878784,0.161575078964233,0.47038859128952,1.34372660991173
4.457757671,1.20776844024658,0.143753290176392,0.452882707118988,1.2978722433659
4.462757671,1.18717670440674,0.156036615371704,0.435481607913971,1.27411937574704
4.467757671,1.20529508590698,0.150968074798584,0.426066637039185,1.28726857450875
4.472757671,1.24469089508057,0.151556730270386,0.411745011806488,1.31975710702168
4.477757671,1.27511167526245,0.172093391418457,0.386589378118515,1.34349442389412
4.482757671,1.28960371017456,0.177389860153198,0.366265594959259,1.35229263764617
4.487757671,1.27589797973633,0.180279493331909,0.346087694168091,1.33423875017399
4.492757671,1.26150941848755,0.170107364654541,0.317538797855377,1.3119349894663
4.497757671,1.2704873085022,0.170092105865479,0.307389289140701,1.31816444369484
4.502757671,1.26268434524536,0.165050029754639,0.302027881145477,1.30875288310626
4.507757671,1.20900058746338,0.151376247406006,0.301308661699295,1.25514305893015
4.512757671,1.11758947372437,0.13800048828125,0.330412775278091,1.17355143415716
4.517757671,1.08415174484253,0.123473882675171,0.334127604961395,1.14117135520711
4.522757671,1.0440821647644,0.120723724365234,0.37325045466423,1.11534644228186
4.527757671,1.02309226989746,0.0948131084442139,0.407100707292557,1.10518699962264
4.532757671,1.02109003067017,0.0746171474456787,0.460079908370972,1.12243756686667
4.537757671,1.01989793777466,0.0616183280944824,0.520252704620361,1.14658253017345
4.542757671,1.02313756942749,0.0345122814178467,0.592120409011841,1.18262765159242
4.547757671,1.01001644134521,0.00600743293762207,0.629872679710388,1.19033982277487
4.552757671,0.984063625335693,-0.0381755828857422,0.683023691177368,1.19848235554265
4.557757671,0.92643928527832,-0.0757336616516113,0.73670756816864,1.18607056190225
4.562757671,0.846898555755615,-0.137701988220215,0.774311661720276,1.15574977861852
4.567757671,0.71507453918457,-0.191327810287476,0.807289242744446,1.09528710803621
4.572757671,0.642618179321289,-0.25281023979187,0.785166382789612,1.04563731303007
4.577757671,0.609714508056641,-0.262993812561035,0.776912689208984,1.02201313760346
4.582757671,0.590235710144043,-0.282531499862671,0.747497737407684,0.993456143658843
4.587757671,0.537429332733154,-0.281595706939697,0.68357926607132,0.914006040927233
4.592757671,0.472479820251465,-0.292993545532227,0.6092848777771,0.824809348004893
4.597757671,0.403746604919434,-0.300480604171753,0.563410878181458,0.755467889536406
4.602757671,0.359716415405273,-0.288241147994995,0.502441465854645,0.681855032627652
4.607757671,0.368074417114258,-0.272282361984253,0.455598145723343,0.645899474816533
4.612757671,0.385923385620117,-0.262027978897095,0.417566120624542,0.626064682270786
4.617757671,0.378494262695313,-0.250847101211548,0.402077674865723,0.606505261069457
4.622757671,0.348437309265137,-0.265714883804321,0.374731630086899,0.576573284631413
4.627757671,0.315546035766602,-0.265267610549927,0.375022143125534,0.557295086762259
4.632757671,0.276503562927246,-0.280127286911011,0.385212421417236,0.550739617966345
4.637757671,0.279270172119141,-0.292387008666992,0.399575024843216,0.568455972218731
4.642757671,0.29550838470459,-0.304625511169434,0.427116274833679,0.602121432697553
4.647757671,0.310680389404297,-0.316493272781372,0.460216462612152,0.639131824067236
4.652757671,0.304966926574707,-0.342501640319824,0.508605241775513,0.684829534911952
4.657757671,0.251224517822266,-0.345044136047363,0.52704131603241,0.678190064053489
4.662757671,0.187732696533203,-0.38509726524353,0.556252956390381,0.702111686655843
4.667757671,0.104668617248535,-0.366490602493286,0.546118915081024,0.665970532802982
4.672757671,-0.0253496170043945,-0.360822439193726,0.55931556224823,0.666085080061874
4.677757671,-0.165148735046387,-0.369102954864502,0.557429552078247,0.688649984758065
4.682757671,-0.246381759643555,-0.36652398109436,0.554650247097015,0.708999786182685
4.687757671,-0.275417327880859,-0.341745615005493,0.534962117671967,0.691974881926064
4.692757671,-0.247360229492188,-0.274744987487793,0.523743748664856,0.641076754803675
4.697757671,-0.182341575622559,-0.200479745864868,0.513146758079529,0.580310411788458
4.702757671,-0.124439239501953,-0.14152193069458,0.491834700107574,0.526701958820407
4.707757671,-0.0793581008911133,-0.0821933746337891,0.4900281727314,0.503171013752987
4.712757671,-0.0206441879272461,-0.0146551132202148,0.485554426908493,0.486214002604931
4.717757671,0.0440444946289063,0.0264945030212402,0.476146161556244,0.478912354572528
4.722757671,0.0929536819458008,0.0927464962005615,0.488239705562592,0.505589071907817
4.727757671,0.106800079345703,0.121718168258667,0.492798268795013,0.518721219114715
4.732757671,0.0991249084472656,0.150349140167236,0.496347099542618,0.528006680495688
4.737757671,0.0688800811767578,0.15721607208252,0.511311411857605,0.539352128761712
4.742757671,0.0157585144042969,0.147755861282349,0.509903252124786,0.531113407707763
4.747757671,-0.0994768142700195,0.141566276550293,0.549284636974335,0.575890840046664
4.752757671,-0.264455795288086,0.12162971496582,0.57972252368927,0.648697818476968
4.757757671,-0.441776275634766,0.076784610748291,0.594572901725769,0.744700671161301
4.762757671,-0.735543251037598,0.0214877128601074,0.607369899749756,0.954140341392683
4.767757671,-1.11820220947266,-0.0480771064758301,0.625819981098175,1.28231752626966
4.772757671,-1.2579231262207,-0.0841326713562012,0.584571182727814,1.38966627848063
4.777757671,-1.28367137908936,-0.108190536499023,0.577853143215179,1.41188939255339
4.782757671,-1.2620964050293,-0.110748291015625,0.58085834980011,1.39375354424061
4.787757671,-1.18282318115234,-0.1089186668396,0.551949262619019,1.30980225315242
4.792757671,-1.18752384185791,-0.0812807083129883,0.53474348783493,1.30490230527297
4.797757671,-1.20116901397705,-0.0609045028686523,0.547124862670898,1.3213107030373
4.802757671,-1.17382335662842,-0.0405716896057129,0.554477393627167,1.29882736135618
4.807757671,-1.11740112304688,-0.022885799407959,0.569815695285797,1.25451144123718
4.812757671,-1.02531909942627,0.000476360321044922,0.602024972438812,1.18899686711421
4.817757671,-0.932085037231445,0.0392045974731445,0.627143383026123,1.12411224527056
4.822757671,-0.843009948730469,0.0901165008544922,0.657401919364929,1.0728299217348
4.827757671,-0.773436546325684,0.127079963684082,0.710708200931549,1.05804515746423
4.832757671,-0.760055541992188,0.160327911376953,0.729483067989349,1.06561485188725
4.837757671,-0.76262378692627,0.15107536315918,0.750210881233215,1.08038658454285
4.842757671,-0.735520362854004,0.181410789489746,0.762033939361572,1.07452119730376
4.847757671,-0.686117172241211,0.199204444885254,0.751019477844238,1.03656617782356
4.852757671,-0.61508846282959,0.229867458343506,0.711145877838135,0.96793663278003
4.857757671,-0.563303947448731,0.248883247375488,0.719647169113159,0.947178048757505
4.862757671,-0.528037071228027,0.234187126159668,0.705527186393738,0.911830778922636
4.867757671,-0.470059394836426,0.229178428649902,0.660812616348267,0.842705109013507
4.872757671,-0.407877922058105,0.217879772186279,0.6408331990242,0.790255138168663
4.877757671,-0.324372291564941,0.188041687011719,0.624816417694092,0.7286786777513
4.882757671,-0.251999855041504,0.173053741455078,0.608352065086365,0.680840480191494
4.887757671,-0.22191333770752,0.147527694702148,0.591716408729553,0.648951661155453
4.892757671,-0.25516414642334,0.100270748138428,0.583548188209534,0.644741384211391
4.897757671,-0.292153358459473,0.0559043884277344,0.559645473957062,0.633783829097313
4.902757671,-0.384950637817383,-0.0223870277404785,0.559307157993317,0.679347237831747
4.907757671,-0.523992538452148,-0.115626335144043,0.525167763233185,0.750825418637192
4.912757671,-0.684242248535156,-0.200970649719238,0.512594163417816,0.878253626863579
4.917757671,-0.869132041931152,-0.293299674987793,0.496063709259033,1.04283000019332
4.922757671,-1.01762866973877,-0.382050514221191,0.449240028858185,1.17615785863101
4.927757671,-1.13129901885986,-0.468771934509277,0.423104375600815,1.29560870223591
4.932757671,-1.22059726715088,-0.516559600830078,0.404685705900192,1.3858073568667
4.937757671,-1.26203060150146,-0.554286479949951,0.379912376403809,1.42978605208131
4.942757671,-1.27728843688965,-0.585785388946533,0.34100615978241,1.4459929024462
4.947757671,-1.21456909179688,-0.581843376159668,0.301813095808029,1.38014888252333
4.952757671,-1.10529613494873,-0.557638168334961,0.252978175878525,1.26358135083872
4.957757671,-0.969806671142578,-0.541009426116943,0.243182137608528,1.13681736905797
4.962757671,-0.810111999511719,-0.492382049560547,0.215772569179535,0.972254769128266
4.967757671,-0.634495735168457,-0.458625793457031,0.21820142865181,0.812732625059892
4.972757671,-0.450325012207031,-0.398872852325439,0.208774238824844,0.636772213384337
4.977757671,-0.249631881713867,-0.350595951080322,0.20263047516346,0.475702329978414
4.982757671,-0.0711879730224609,-0.302327632904053,0.225046008825302,0.383556294706021
4.987757671,0.0826892852783203,-0.295601844787598,0.253387033939362,0.39802381525514
4.992757671,0.201319694519043,-0.28471040725708,0.283930569887161,0.449673441419639
4.997757671,0.226388931274414,-0.296272277832031,0.321762233972549,0.492503955340825
5.002757671,0.230896949768066,-0.320294857025147,0.357456386089325,0.532613616803961
5.007757671,0.242177963256836,-0.352646827697754,0.390832602977753,0.57944807750383
5.012757671,0.198000907897949,-0.3878173828125,0.439614355564117,0.618762849206385
5.017757671,0.177492141723633,-0.420352458953857,0.450376898050308,0.641123233411186
5.022757671,0.00671005249023438,-0.46871280670166,0.454990684986115,0.653263532882943
5.027757671,-0.0965204238891602,-0.51399564743042,0.472061663866043,0.704521065900188
5.032757671,-0.157065391540527,-0.543961524963379,0.454676985740662,0.726150700077111
5.037757671,-0.119772911071777,-0.553969860076904,0.433497130870819,0.713546017137973
5.042757671,-0.00536441802978516,-0.553539514541626,0.433959066867828,0.703388401138783
5.047757671,0.261489868164063,-0.522147178649902,0.427546083927155,0.723747387702337
5.052757671,0.350879669189453,-0.499061584472656,0.386782377958298,0.722343142312526
5.057757671,0.425948143005371,-0.487791538238525,0.381050944328308,0.751380214991269
5.062757671,0.499074935913086,-0.495259761810303,0.355904400348663,0.78805200685779
5.067757671,0.580902099609375,-0.486424922943115,0.328388333320618,0.825769551661896
5.072757671,0.554499626159668,-0.490642547607422,0.363308429718018,0.824738116033256
5.077757671,0.377773284912109,-0.460372447967529,0.397344440221787,0.715917627814867
5.082757671,0.199418067932129,-0.41011643409729,0.278567433357239,0.534380828868046
5.087757671,0.675687789916992,-0.359317302703857,0.208272755146027,0.793120705820622
5.092757671,1.04874801635742,-0.435472726821899,0.24981427192688,1.16271925591593
5.097757671,0.305291175842285,-0.466099739074707,0.572169184684753,0.798642125557806
5.102757671,0.493132591247559,-0.487839460372925,0.405577600002289,0.803529888225133
5.107757671,0.601973533630371,-0.543318033218384,0.465420186519623,0.934977310115967
5.112757671,0.0181560516357422,-0.633810520172119,0.564380764961243,0.848864574328608
5.117757671,-0.362506866455078,-0.711340427398682,0.489311218261719,0.936398366185881
5.122757671,-0.880541801452637,-0.756374835968018,0.433100461959839,1.23896439284627
5.127757671,-1.30912971496582,-0.756587982177734,0.368615448474884,1.55631723444695
5.132757671,-1.33219909667969,-0.710642337799072,0.248641714453697,1.53022536498164
5.137757671,-1.13715076446533,-0.66597056388855,0.114776879549026,1.32280096203818
5.142757671,-1.0579948425293,-0.617536544799805,-0.136912316083908,1.232659504193
5.147757671,-1.30624961853027,-0.542951822280884,-0.381969302892685,1.46525946356983
5.152757671,-1.54248237609863,-0.464337348937988,-0.621213793754578,1.72648997441184
5.157757671,-1.55163764953613,-0.364386558532715,-0.852403402328491,1.80747019886872
5.162757671,-1.5826416015625,-0.260019779205322,-0.974934339523315,1.87692879219113
5.167757671,-1.38989734649658,-0.152274131774902,-1.02905082702637,1.73607247821331
5.172757671,-1.12646102905273,-0.078845739364624,-1.05210471153259,1.54339088523277
5.177757671,-0.854585647583008,-0.00750589370727539,-0.952254295349121,1.27951600635008
5.182757671,-0.693726539611816,0.0397958755493164,-0.918474793434143,1.15171010660079
5.187757671,-0.80260181427002,0.106089353561401,-0.827855110168457,1.15791567337204
5.192757671,-1.06261730194092,0.172441720962524,-0.766696989536285,1.32163381890625
5.197757671,-1.07781219482422,0.201288223266602,-0.717622876167297,1.3104116408733
5.202757671,-1.39607048034668,0.260507345199585,-0.671087920665741,1.57074372838532
5.207757671,-1.02413082122803,0.323975086212158,-0.610986828804016,1.23576239643685
5.212757671,-1.2134952545166,0.377299547195435,-0.542252957820892,1.38165261600509
5.217757671,-1.43202877044678,0.367868185043335,-0.574314832687378,1.58614971802763
5.222757671,-1.54328060150146,0.367763042449951,-0.521170914173126,1.66990532430519
5.227757671,-0.982224464416504,0.316660642623901,-0.473891228437424,1.13561074205698
5.232757671,-0.312348365783691,0.24782657623291,-0.367449760437012,0.542216598731804
5.237757671,0.309844970703125,0.131053924560547,-0.312136560678482,0.45892076606418
5.242757671,0.679178237915039,-0.0119316577911377,-0.19625523686409,0.707065457586214
5.247757671,0.920375823974609,-0.194788932800293,-0.0490424931049347,0.942040100966177
5.252757671,0.952558517456055,-0.416932344436646,0.0758776366710663,1.04257264723486
5.257757671,0.891452789306641,-0.630381584167481,0.198658749461174,1.10974515811405
5.262757671,0.908815383911133,-0.879943609237671,0.300324022769928,1.30016947976965
5.267757671,0.844267845153809,-1.09991359710693,0.412427842617035,1.44661495942324
5.272757671,0.696359634399414,-1.29958200454712,0.521637260913849,1.56394870725906
5.277757671,0.673903465270996,-1.45980000495911,0.515744924545288,1.68853627801629
5.282757671,0.587000846862793,-1.62008953094482,0.620566725730896,1.83149205392189
5.287757671,0.501587867736816,-1.75876307487488,0.634332418441773,1.93577260020135
5.292757671,0.347936630249023,-1.89806532859802,0.659815549850464,2.0393794276984
5.297757671,0.0879688262939453,-2.00230407714844,0.651735186576843,2.10753858450733
5.302757671,-0.164487838745117,-2.0657365322113,0.676109731197357,2.17978164920874
5.307757671,-0.264110565185547,-2.1097993850708,0.585695326328278,2.20545842199996
5.312757671,-0.417449951171875,-2.13261103630066,0.511120915412903,2.23238412556112
5.317757671,-0.631695747375488,-2.11963200569153,0.409684866666794,2.24938237006961
5.322757671,-0.833222389221191,-2.08548808097839,0.300229251384735,2.26575764131768
5.327757671,-0.939103126525879,-2.03944969177246,0.21487358212471,2.25553549823907
5.332757671,-0.938657760620117,-1.99659514427185,0.100236669182777,2.2085103467159
5.337757671,-0.823887825012207,-1.9577454328537,0.0512663125991821,2.12466151724701
5.342757671,-0.503935813903809,-1.92381536960602,0.0530430525541306,1.98942967864951
5.347757671,-0.191993713378906,-1.90886676311493,0.0235692858695984,1.91864259739491
5.352757671,0.0449514389038086,-1.89977407455444,0.0920988023281097,1.9025362954748
5.357757671,0.17375373840332,-1.89005899429321,0.129417270421982,1.9024358578941
5.362757671,0.31103515625,-1.85138511657715,0.13837531208992,1.88242329068221
5.367757671,0.463712692260742,-1.79575026035309,0.196311771869659,1.86501656032768
5.372757671,0.664504051208496,-1.74451804161072,0.187514662742615,1.8761851135539
5.377757671,0.773674964904785,-1.68805611133575,0.183627605438232,1.86596502749044
5.382757671,0.770442008972168,-1.62461888790131,0.15351802110672,1.80458726664001
5.387757671,0.720056533813477,-1.55379569530487,0.104722380638123,1.71572994717757
5.392757671,0.641036033630371,-1.49702751636505,0.00551873445510864,1.62851129489379
5.397757671,0.530128479003906,-1.4039626121521,-0.0752489566802979,1.50260095369776
5.402757671,0.415907859802246,-1.36099123954773,-0.19040235877037,1.43580275811
5.407757671,0.318770408630371,-1.30084216594696,-0.271318346261978,1.36653523889517
5.412757671,0.280685424804688,-1.27203440666199,-0.35013148188591,1.34886911671864
5.417757671,0.300166130065918,-1.28125011920929,-0.405588358640671,1.37702704776537
5.422757671,0.243160247802734,-1.30031144618988,-0.409302681684494,1.38472576651048
5.427757671,0.149565696716309,-1.34570467472076,-0.442275822162628,1.42439421231244
5.432757671,0.035649299621582,-1.39160358905792,-0.415653645992279,1.45279020339107
5.437757671,-0.091740608215332,-1.43308210372925,-0.390845775604248,1.4882543719178
5.442757671,-0.214765548706055,-1.48415780067444,-0.401868581771851,1.55252921880044
5.447757671,-0.26337718963623,-1.55151653289795,-0.383895635604858,1.61986016523427
5.452757671,-0.227237701416016,-1.61752724647522,-0.393286108970642,1.68009086943052
5.457757671,-0.20448112487793,-1.66650211811066,-0.40600311756134,1.72739120397441
5.462757671,-0.470376968383789,-1.74147653579712,-0.403970539569855,1.84856355421127
5.467757671,-0.644903182983398,-1.82572436332703,-0.45264333486557,1.98848071523619
5.472757671,-0.521276473999023,-1.88451206684113,-0.523251891136169,2.02408187433025
5.477757671,-0.36374568939209,-1.94047665596008,-0.620402097702026,2.06945870741854
5.482757671,-0.28702449798584,-1.99284470081329,-0.724553227424622,2.13981084289595
5.487757671,-0.25460147857666,-2.03288912773132,-0.794217169284821,2.1973258817318
5.492757671,-0.230190277099609,-2.06472396850586,-0.895842850208283,2.26243387573274
5.497757671,-0.174779891967773,-2.08864045143127,-0.981022477149963,2.31416767902949
5.502757671,-0.169632911682129,-2.12214922904968,-1.05361342430115,2.37537237563914
5.507757671,-0.249135971069336,-2.13799667358398,-1.08154308795929,2.40890721271064
5.512757671,-0.272385597229004,-2.17340135574341,-1.13563668727875,2.46729366963451
5.517757671,-0.22847843170166,-2.1764874458313,-1.15590023994446,2.47495562794927
5.522757671,-0.191106796264648,-2.18175220489502,-1.18390548229218,2.48961777832347
5.527757671,-0.212405204772949,-2.16887617111206,-1.21048069000244,2.49287049753916
5.532757671,-0.262018203735352,-2.15302395820618,-1.23518490791321,2.49596623783958
5.537757671,-0.274172782897949,-2.12071657180786,-1.27311253547668,2.48865928178414
5.542757671,-0.260599136352539,-2.08814191818237,-1.32394742965698,2.48617887064334
5.547757671,-0.250796318054199,-2.05966138839722,-1.36747121810913,2.48497109849607
5.552757671,-0.258028030395508,-2.03778123855591,-1.40169978141785,2.48674347649835
5.557757671,-0.269679069519043,-2.00129318237305,-1.45910203456879,2.49136106368231
5.562757671,-0.218602180480957,-1.97573494911194,-1.50545299053192,2.49353247605779
5.567757671,-0.118376731872559,-1.96116077899933,-1.57703161239624,2.51936368121619
5.572757671,-0.0119647979736328,-1.95407593250275,-1.60958862304688,2.53166574448898
5.577757671,0.104852676391602,-1.9665755033493,-1.63050377368927,2.55674712283695
5.582757671,0.202130317687988,-1.98807108402252,-1.64028882980347,2.58531057044084
5.587757671,0.245925903320313,-2.00712585449219,-1.65188598632813,2.61108426856012
5.592757671,0.221891403198242,-2.04544973373413,-1.67008256912231,2.64995777244327
5.597757671,0.169837951660156,-2.06054973602295,-1.67939043045044,2.66365582655434
5.602757671,0.136153221130371,-2.1172366142273,-1.6627357006073,2.69553679075669
5.607757671,0.104729652404785,-2.15669322013855,-1.6579327583313,2.72232161528216
5.612757671,0.10842227935791,-2.18947458267212,-1.65212106704712,2.74500607631556
5.617757671,0.0304946899414063,-2.20817708969116,-1.65452837944031,2.75942750292972
5.622757671,-0.0573596954345703,-2.21999740600586,-1.66139006614685,2.77342668358558
5.627757671,-0.0309247970581055,-2.20265960693359,-1.68017184734344,2.77049510443448
5.632757671,0.0530281066894531,-2.1687490940094,-1.70214450359344,2.75745907022734
5.637757671,0.117886543273926,-2.13838243484497,-1.72450041770935,2.74963240550774
5.642757671,0.159080505371094,-2.09232568740845,-1.75725436210632,2.7369830621544
5.647757671,0.14824390411377,-2.06955242156982,-1.78812122344971,2.73905111133102
5.652757671,0.089320182800293,-2.04898548126221,-1.82616996765137,2.74612751856693
5.657757671,0.0802736282348633,-2.02481627464294,-1.86768054962158,2.75582209819206
5.662757671,0.103574752807617,-2.01253175735474,-1.88045525550842,2.75628804223175
5.667757671,0.193027496337891,-1.97364687919617,-1.8893735408783,2.73902792885984
5.672757671,0.246298789978027,-1.95622408390045,-1.89866781234741,2.73722765257494
5.677757671,0.313712120056152,-1.92512500286102,-1.89416873455048,2.71889624036287
5.682757671,0.44521427154541,-1.89321219921112,-1.88207590579987,2.70641421331287
5.687757671,0.560727119445801,-1.85415375232697,-1.87679052352905,2.69715474323566
5.692757671,0.65001106262207,-1.81529593467712,-1.85469818115234,2.67539138354675
5.697757671,0.727815628051758,-1.75291526317596,-1.80826735496521,2.6214992533557
5.702757671,0.601555824279785,-1.69034159183502,-1.78039681911469,2.52763465325311
5.707757671,0.546420097351074,-1.62115561962128,-1.74282729625702,2.4421645010927
5.712757671,0.612998962402344,-1.55937945842743,-1.71454954147339,2.39731352839765
5.717757671,0.607419013977051,-1.48808264732361,-1.67234826087952,2.31950350926082
5.722757671,0.614240646362305,-1.39661467075348,-1.65971922874451,2.2544382955565
5.727757671,0.557968139648438,-1.32610380649567,-1.61806893348694,2.16518517082964
5.732757671,0.570223808288574,-1.26717805862427,-1.58056330680847,2.10453695397045
5.737757671,0.541525840759277,-1.20787572860718,-1.56132102012634,2.04693364324707
5.742757671,0.510406494140625,-1.16228044033051,-1.55192518234253,2.00496443430418
5.747757671,0.522948265075684,-1.12409210205078,-1.4988648891449,1.9451616636542
5.752757671,0.540434837341309,-1.07980918884277,-1.4850287437439,1.91399270308614
5.757757671,0.564826965332031,-1.05511260032654,-1.45397448539734,1.88317123605913
5.762757671,0.526342391967773,-1.02765536308289,-1.46165752410889,1.86267403928854
5.767757671,0.441449165344238,-1.00603079795837,-1.46149301528931,1.82837008446412
5.772757671,0.319084167480469,-0.996978044509888,-1.47635412216187,1.80980701214129
5.777757671,0.268000602722168,-0.991363406181335,-1.46844458580017,1.79191384495481
5.782757671,0.234964370727539,-0.966543316841126,-1.45933818817139,1.7660923493116
5.787757671,0.183789253234863,-0.93915581703186,-1.44988751411438,1.73722938665399
5.792757671,0.138339996337891,-0.923372745513916,-1.45539259910584,1.72913932326944
5.797757671,0.108875274658203,-0.881951451301575,-1.42406558990479,1.67858720126055
5.802757671,0.0861988067626953,-0.849440932273865,-1.37664699554443,1.61991885045243
5.807757671,0.0889205932617188,-0.79325532913208,-1.34984183311462,1.56819445973027
5.812757671,0.0302143096923828,-0.758345007896423,-1.2728499174118,1.48194027132231
5.817757671,-0.0285186767578125,-0.716850757598877,-1.19863152503967,1.39692729102593
5.822757671,-0.0602512359619141,-0.671223521232605,-1.13633608818054,1.32114758153368
5.827757671,-0.0793399810791016,-0.635690450668335,-1.03956317901611,1.22110146377548
5.832757671,-0.106657028198242,-0.606486320495606,-0.948410153388977,1.1307887502375
5.837757671,-0.0731935501098633,-0.591220259666443,-0.855441689491272,1.04243905113797
5.842757671,-0.0469522476196289,-0.56751012802124,-0.797034502029419,0.979559215355817
5.847757671,-0.0239973068237305,-0.555840492248535,-0.697482466697693,0.892197464078768
5.852757671,0.0130987167358398,-0.543221235275269,-0.611948251724243,0.818377388264407
5.857757671,0.0227298736572266,-0.55052661895752,-0.547160983085632,0.77651873560688
5.862757671,0.0266704559326172,-0.568723917007446,-0.470935165882111,0.738876266678229
5.867757671,0.012176513671875,-0.587084054946899,-0.44605103135109,0.737412691528608
5.872757671,-0.00785541534423828,-0.637975215911865,-0.42197373509407,0.764941773455511
5.877757671,-0.102936744689941,-0.682663679122925,-0.384887397289276,0.790420129293987
5.882757671,-0.170016288757324,-0.739732146263123,-0.355033874511719,0.837948828216057
5.887757671,-0.23274040222168,-0.793095231056213,-0.334340572357178,0.891600672203954
5.892757671,-0.229022979736328,-0.817911982536316,-0.319062352180481,0.907321509170115
5.897757671,-0.241530418395996,-0.851187825202942,-0.294594526290894,0.932546830837366
5.902757671,-0.242612838745117,-0.870602369308472,-0.244995847344399,0.936393314897906
5.907757671,-0.252987861633301,-0.881078958511353,-0.22906468808651,0.944866985661691
5.912757671,-0.24075984954834,-0.864155888557434,-0.192672237753868,0.917525637834775
5.917757671,-0.208251953125,-0.858428955078125,-0.154942274093628,0.896814504342009
5.922757671,-0.145980834960938,-0.830773830413818,-0.109389990568161,0.850565536283268
5.927757671,-0.0834865570068359,-0.811123847961426,-0.0431998260319233,0.816552586733882
5.932757671,-0.0606060028076172,-0.798010110855103,0.0307361111044884,0.800898203974211
5.937757671,0.00284862518310547,-0.764942169189453,0.116518341004848,0.773770741667209
5.942757671,0.0655889511108398,-0.72233772277832,0.183505594730377,0.748163083527742
5.947757671,0.126876831054688,-0.692628622055054,0.248636066913605,0.746761027450301
5.952757671,0.193891525268555,-0.675833463668823,0.297324508428574,0.763378449720621
5.957757671,0.244782447814941,-0.671435356140137,0.37333670258522,0.806302782911303
5.962757671,0.248936653137207,-0.665103197097778,0.433082342147827,0.831800477966374
5.967757671,0.22674560546875,-0.657221794128418,0.480061590671539,0.84487465763559
5.972757671,0.23703670501709,-0.668660163879395,0.514477550983429,0.876344660935687
5.977757671,0.232745170593262,-0.678857803344727,0.541014194488525,0.898729431049513
5.982757671,0.190694808959961,-0.698862791061401,0.560329020023346,0.915828762146468
5.987757671,0.0962419509887695,-0.718027114868164,0.571196496486664,0.922545873338916
5.992757671,0.0307846069335938,-0.706907272338867,0.591032922267914,0.921946581377784
5.997757671,-0.0176801681518555,-0.713305950164795,0.606321215629578,0.936345760608178
6.002757671,-0.0666103363037109,-0.708759546279907,0.597175180912018,0.929190630625759
6.007757671,-0.111181259155273,-0.699443578720093,0.570406198501587,0.909365615959365
6.012757671,-0.205657005310059,-0.694355726242065,0.545482516288757,0.906628840251049
6.017757671,-0.253599166870117,-0.654757976531982,0.513176202774048,0.869695556136206
6.022757671,-0.229038238525391,-0.637657642364502,0.504096746444702,0.844499445440199
6.027757671,-0.155424118041992,-0.599453210830689,0.510323405265808,0.802452980807252
6.032757671,-0.11443042755127,-0.565346240997315,0.515096306800842,0.773327162486375
6.037757671,-0.114374160766602,-0.539703130722046,0.534031093120575,0.767821676160421
6.042757671,-0.133233070373535,-0.519376516342163,0.557537972927094,0.773531904981645
6.047757671,-0.139712333679199,-0.489785194396973,0.607674479484558,0.792891761748977
6.052757671,-0.129292488098145,-0.472540616989136,0.647019684314728,0.811569870112125
6.057757671,-0.146974563598633,-0.448571681976318,0.724423170089722,0.864642703999122
6.062757671,-0.174551010131836,-0.428742408752441,0.781512379646301,0.908322469028106
6.067757671,-0.175127983093262,-0.405263185501099,0.829174041748047,0.939381526055097
6.072757671,-0.16910457611084,-0.381698369979858,0.852828145027161,0.949529277198642
6.077757671,-0.135251998901367,-0.355861186981201,0.871789336204529,0.951286988414337
6.082757671,-0.130048751831055,-0.334857940673828,0.892895877361298,0.962447695250985
6.087757671,-0.114787101745605,-0.301536560058594,0.911794722080231,0.9671969763148
6.092757671,-0.0908050537109375,-0.267103433609009,0.900859713554382,0.94400107284391
6.097757671,-0.0556879043579102,-0.226180791854858,0.894755601882935,0.924579082824589
6.102757671,-0.00179576873779297,-0.203827857971191,0.887410998344421,0.910520345985265
6.107757671,0.0245180130004883,-0.178286075592041,0.890298366546631,0.908305146515807
6.112757671,0.0103044509887695,-0.169906616210938,0.880330979824066,0.896636533931354
6.117757671,-0.0184555053710938,-0.173835754394531,0.870346903800964,0.887729242584891
6.122757671,-0.0391931533813477,-0.16938328742981,0.8679558634758,0.885197256138158
6.127757671,-0.0321121215820313,-0.161084651947021,0.873732924461365,0.889038062589674
6.132757671,-0.0369491577148438,-0.154085397720337,0.865409970283508,0.879796548477302
6.137757671,-0.00998687744140625,-0.144460678100586,0.863428473472595,0.875486923969471
6.142757671,0.0477352142333984,-0.12703275680542,0.857824087142944,0.868491874724294
6.147757671,0.116225242614746,-0.109990835189819,0.868154644966126,0.882779008825465
6.152757671,0.174644470214844,-0.0699148178100586,0.874319076538086,0.894328027249761
6.157757671,0.231183052062988,-0.06728196144104,0.880515098571777,0.912841335999515
6.162757671,0.270779609680176,-0.0440518856048584,0.905361771583557,0.946013796457963
6.167757671,0.260759353637695,-0.0400359630584717,0.906463146209717,0.944072960254655
6.172757671,0.22518253326416,-0.0337362289428711,0.919726133346558,0.94749219880227
6.177757671,0.29177188873291,-0.0212721824645996,0.923384547233582,0.968618791306128
6.182757671,0.319665908813477,-0.0346856117248535,0.931662082672119,0.985587957113531
6.187757671,0.322303771972656,-0.0348320007324219,0.967550396919251,1.02041499414769
6.192757671,0.29348087310791,-0.0351057052612305,0.977670431137085,1.02137304905791
6.197757671,0.270016670227051,-0.0375204086303711,0.976916193962097,1.01423963306986
6.202757671,0.25850772857666,-0.0555760860443115,0.983111023902893,1.01804824659407
6.207757671,0.230751991271973,-0.0636618137359619,0.995996117591858,1.02435715171135
6.212757671,0.216590881347656,-0.0690433979034424,0.987840890884399,1.0136608044017
6.217757671,0.221347808837891,-0.100034475326538,0.970190823078156,1.00013598171262
6.222757671,0.231840133666992,-0.120205879211426,0.940893709659576,0.976463145158423
6.227757671,0.225259780883789,-0.129861116409302,0.915235638618469,0.951452653912027
6.232757671,0.207803726196289,-0.131360769271851,0.901765942573547,0.934676337300947
6.237757671,0.184577941894531,-0.131940364837646,0.879086315631867,0.907893180301913
6.242757671,0.209419250488281,-0.126559019088745,0.837087035179138,0.872117143652605
6.247757671,0.289654731750488,-0.116086006164551,0.810159862041473,0.868179029069317
6.252757671,0.366477966308594,-0.107649564743042,0.80462372303009,0.89068168513889
6.257757671,0.404492378234863,-0.0781068801879883,0.805606544017792,0.904829637305878
6.262757671,0.458776473999023,-0.0554723739624023,0.805844664573669,0.928944918060189
6.267757671,0.520744323730469,-0.0452988147735596,0.803444147109985,0.95851402224625
6.272757671,0.547243118286133,-0.0329434871673584,0.816860795021057,0.983779376842547
6.277757671,0.586798667907715,-0.0212197303771973,0.821548342704773,1.00981415766294
6.282757671,0.562290191650391,-0.00988912582397461,0.825767397880554,0.999079501260143
6.287757671,0.556157112121582,-0.0122909545898438,0.841293931007385,1.0085818158573
6.292757671,0.555500030517578,-0.0000438690185546875,0.826360106468201,0.99571648143016
6.297757671,0.557032585144043,-0.00555086135864258,0.812810838222504,0.985381942043819
6.302757671,0.552624702453613,0.00596404075622559,0.802024722099304,0.973998606981834
6.307757671,0.519439697265625,0.0273990631103516,0.778559148311615,0.93633469185673
6.312757671,0.501335144042969,0.023745059967041,0.750613212585449,0.902951244217135
6.317757671,0.476813316345215,0.0306313037872314,0.730426549911499,0.872818515059943
6.322757671,0.468686103820801,0.0317888259887695,0.703633904457092,0.846036562374227
6.327757671,0.447477340698242,0.0227465629577637,0.681921362876892,0.815947376803578
6.332757671,0.426227569580078,0.0463688373565674,0.678603827953339,0.802697430829864
6.337757671,0.424378395080566,0.044126033782959,0.643160402774811,0.771815672791133
6.342757671,0.442909240722656,0.0473310947418213,0.633101761341095,0.774097324798488
6.347757671,0.466473579406738,0.0670092105865479,0.613104462623596,0.773294844594826
6.352757671,0.440835952758789,0.0797994136810303,0.586410462856293,0.73795766451465
6.357757671,0.511686325073242,0.0886521339416504,0.565562725067139,0.767817225715037
6.362757671,0.580193519592285,0.100452184677124,0.54332822561264,0.801199552128351
6.367757671,0.601167678833008,0.0937151908874512,0.526069581508637,0.804322273510569
6.372757671,0.522875785827637,0.0968811511993408,0.497548431158066,0.728244111689501
6.377757671,0.487963676452637,0.0878090858459473,0.459271848201752,0.675832535207449
6.382757671,0.488768577575684,0.0972580909729004,0.452419996261597,0.673080761649294
6.387757671,0.56331729888916,0.121290922164917,0.404093712568283,0.703796558363718
6.392757671,0.622797966003418,0.140366077423096,0.387988179922104,0.747070793103577
6.397757671,0.662346839904785,0.165525197982788,0.356876373291016,0.770365285635616
6.402757671,0.703022956848145,0.201627969741821,0.348073720932007,0.809969401422776
6.407757671,0.764020919799805,0.236486196517944,0.337661147117615,0.868140966265299
6.412757671,0.811630249023438,0.274197578430176,0.311691790819168,0.911635752705476
6.417757671,0.812677383422852,0.310460567474365,0.31121751666069,0.923951641678267
6.422757671,0.786674499511719,0.343142986297607,0.306982934474945,0.911505567336866
6.427757671,0.741265296936035,0.383265495300293,0.292639464139938,0.884310203662469
6.432757671,0.706262588500977,0.426460742950439,0.286832749843597,0.873469310037153
6.437757671,0.645804405212402,0.448027610778809,0.266139924526215,0.829832832104594
6.442757671,0.717758178710938,0.48497748374939,0.238184899091721,0.898394127877996
6.447757671,0.615718841552734,0.517866134643555,0.235708341002464,0.838363553162846
6.452757671,0.50682544708252,0.563890218734741,0.183712795376778,0.780124736039218
6.457757671,0.495197296142578,0.577429533004761,0.147799044847488,0.774912759832258
6.462757671,0.315054893493652,0.60463809967041,0.119410619139671,0.692174626413495
6.467757671,0.142160415649414,0.64121675491333,0.0659218952059746,0.660086514652999
6.472757671,0.00920200347900391,0.683345794677734,0.024385679513216,0.683842681716411
6.477757671,-0.0450687408447266,0.727899551391602,-0.0510645844042301,0.731079024523205
6.482757671,-0.128744125366211,0.765490055084229,-0.127060651779175,0.786571346719237
6.487757671,-0.269457817077637,0.809988975524902,-0.188649490475655,0.874230110390194
6.492757671,-0.443977355957031,0.857739210128784,-0.246729791164398,0.996849053288899
6.497757671,-0.610982894897461,0.916305303573608,-0.309843182563782,1.14407967598225
6.502757671,-0.751132011413574,0.952769756317139,-0.380402445793152,1.27148555944935
6.507757671,-0.871016502380371,0.991765260696411,-0.436290115118027,1.39018601068089
6.512757671,-0.904288291931152,1.00346302986145,-0.493461012840271,1.43811652463068
6.517757671,-0.977571487426758,1.03777670860291,-0.519854068756104,1.5175225740498
6.522757671,-1.07143783569336,1.0563817024231,-0.52407318353653,1.59329031838887
6.527757671,-1.09936237335205,1.04370808601379,-0.535322546958923,1.60763628536912
6.532757671,-1.12097930908203,1.05011248588562,-0.514586210250855,1.61991660655209
6.537757671,-1.17298030853271,1.03369331359863,-0.489889919757843,1.63841289187566
6.542757671,-1.22727108001709,1.01693081855774,-0.45655283331871,1.65794544035386
6.547757671,-1.18850326538086,0.986934185028076,-0.43429833650589,1.60474114501055
6.552757671,-1.12791442871094,0.949839353561401,-0.412762224674225,1.53126039920919
6.557757671,-1.15488052368164,0.908252000808716,-0.394013404846191,1.52115656135412
6.562757671,-1.22171497344971,0.854905366897583,-0.388092696666718,1.54080063730113
6.567757671,-1.30235195159912,0.790775537490845,-0.375879138708115,1.5693093013947
6.572757671,-1.3325662612915,0.68686318397522,-0.376544922590256,1.54573605539933
6.577757671,-1.39860534667969,0.591125965118408,-0.396623343229294,1.56934282385735
6.582757671,-1.37727069854736,0.474835634231567,-0.394157737493515,1.50920634064373
6.587757671,-1.31005096435547,0.372041940689087,-0.398903459310532,1.41907459447709
6.592757671,-1.2279806137085,0.280783414840698,-0.402623265981674,1.32245272429802
6.597757671,-1.14301586151123,0.171791076660156,-0.361986875534058,1.21121093610701
6.602757671,-1.00094795227051,0.0966248512268066,-0.351224541664124,1.06517221316381
6.607757671,-0.879252433776856,0.0165958404541016,-0.32445639371872,0.937353836951585
6.612757671,-0.772461891174316,-0.0722792148590088,-0.296512067317963,0.830566712722349
6.617757671,-0.669567108154297,-0.147560596466064,-0.263261318206787,0.734439080942391
6.622757671,-0.560736656188965,-0.211777448654175,-0.226952314376831,0.640923270254289
6.627757671,-0.45279598236084,-0.314467191696167,-0.20892122387886,0.589543801665689
6.632757671,-0.412508964538574,-0.39153003692627,-0.166012138128281,0.592468940659421
6.637757671,-0.410943031311035,-0.508541822433472,-0.146228522062302,0.669978910721512
6.642757671,-0.439523696899414,-0.627139091491699,-0.131253063678741,0.776988987655692
6.647757671,-0.558925628662109,-0.747135639190674,-0.143715232610703,0.944067576928971
6.652757671,-0.646936416625977,-0.86890459060669,-0.198045611381531,1.10124655682627
6.657757671,-0.748071670532227,-0.967969655990601,-0.240957587957382,1.24685084848416
6.662757671,-0.761566162109375,-1.06383657455444,-0.300690203905106,1.34244026882176
6.667757671,-0.73687744140625,-1.14769506454468,-0.374027490615845,1.41424498887923
6.672757671,-0.731444358825684,-1.21030211448669,-0.43935352563858,1.48083543274732
6.677757671,-0.680335998535156,-1.26075124740601,-0.513275980949402,1.52177626849619
6.682757671,-0.596590995788574,-1.30247592926025,-0.537486791610718,1.53011647063691
6.687757671,-0.415000915527344,-1.33633351325989,-0.614924311637878,1.52844526483396
6.692757671,-0.455327987670898,-1.33992624282837,-0.591412365436554,1.53378437160112
6.697757671,-0.270246505737305,-1.32964873313904,-0.616801559925079,1.49045063377741
6.702757671,-0.156614303588867,-1.31336736679077,-0.596343278884888,1.4508918589994
6.707757671,-0.0923557281494141,-1.28503441810608,-0.550371527671814,1.40098246052941
6.712757671,0.00522422790527344,-1.26827192306519,-0.515005588531494,1.36885781570306
6.717757671,0.111190795898438,-1.23818731307983,-0.479967534542084,1.3326064871442
6.722757671,0.202676773071289,-1.22577023506165,-0.457415759563446,1.32394098078528
6.727757671,0.251398086547852,-1.19939684867859,-0.420849114656448,1.29571130111887
6.732757671,0.283987998962402,-1.17671751976013,-0.393842935562134,1.27295937199791
6.737757671,0.333992958068848,-1.14947891235352,-0.392263025045395,1.25965207371034
6.742757671,0.39866828918457,-1.13187980651855,-0.390650987625122,1.26202079829863
6.747757671,0.481655120849609,-1.12134838104248,-0.411817491054535,1.28802464768563
6.752757671,0.546818733215332,-1.12736535072327,-0.448602288961411,1.33086715139718
6.757757671,0.579466819763184,-1.13336849212646,-0.497941941022873,1.36684019211505
6.762757671,0.600470542907715,-1.14629101753235,-0.559619665145874,1.4098660005097
6.767757671,0.626380920410156,-1.15996551513672,-0.614952683448792,1.4546614233701
6.772757671,0.657414436340332,-1.18241882324219,-0.702275633811951,1.52430281785218
6.777757671,0.694276809692383,-1.1809401512146,-0.744123220443726,1.55896096693629
6.782757671,0.629153251647949,-1.21770405769348,-0.780582308769226,1.57732232817071
6.787757671,0.540621757507324,-1.26201963424683,-0.828324198722839,1.60346076350643
6.792757671,0.404997825622559,-1.31215405464172,-0.867012858390808,1.62403288097462
6.797757671,0.283895492553711,-1.37265539169312,-0.899848699569702,1.66568519149141
6.802757671,0.151063919067383,-1.41964864730835,-0.896922945976257,1.68602887296367
6.807757671,0.0488576889038086,-1.4634428024292,-0.91054767370224,1.72428216247556
6.812757671,-0.0348796844482422,-1.50026082992554,-0.929709434509277,1.76532115571406
6.817757671,-0.0909252166748047,-1.52129411697388,-0.931284248828888,1.78602730591765
6.822757671,-0.155116081237793,-1.53114342689514,-0.939039349555969,1.80284666358436
6.827757671,-0.188252449035645,-1.53396701812744,-0.906049370765686,1.79148521052662
6.832757671,-0.219362258911133,-1.54485177993774,-0.903193473815918,1.80289913022195
6.837757671,-0.259585380554199,-1.55947875976563,-0.87694376707077,1.80786861872258
6.842757671,-0.265666007995605,-1.55024027824402,-0.858934938907623,1.79209167660883
6.847757671,-0.316912651062012,-1.53694558143616,-0.849572777748108,1.78449131502227
6.852757671,-0.376182556152344,-1.52537488937378,-0.843388795852661,1.78313951491609
6.857757671,-0.390474319458008,-1.51074504852295,-0.821929335594177,1.7636293909161
6.862757671,-0.408016204833984,-1.48093247413635,-0.821155309677124,1.74181923831656
6.867757671,-0.412126541137695,-1.42738223075867,-0.81115335226059,1.69270141474488
6.872757671,-0.392487525939941,-1.37820267677307,-0.817174136638641,1.64962500159097
6.877757671,-0.35832405090332,-1.31668043136597,-0.815304398536682,1.58958005336979
6.882757671,-0.302074432373047,-1.26541900634766,-0.810149908065796,1.5326046776186
6.887757671,-0.243593215942383,-1.19628167152405,-0.810685038566589,1.46548207912387
6.892757671,-0.200737953186035,-1.13373494148254,-0.794650435447693,1.3989710354203
6.897757671,-0.208549499511719,-1.10819387435913,-0.777559280395508,1.36973902311457
6.902757671,-0.234092712402344,-1.08248114585876,-0.771491408348084,1.34972731405069
6.907757671,-0.228348731994629,-1.05070209503174,-0.77669882774353,1.32641588686423
6.912757671,-0.178634643554688,-1.02542805671692,-0.757367312908173,1.28725222161078
6.917757671,-0.14797306060791,-1.00469183921814,-0.74855250120163,1.26159920954018
6.922757671,-0.125102996826172,-0.969979286193848,-0.740087509155273,1.22647466205693
6.927757671,-0.0632266998291016,-0.920506954193115,-0.724941372871399,1.17340132196527
6.932757671,0.0233573913574219,-0.883009195327759,-0.709426581859589,1.13293286730211
6.937757671,0.124459266662598,-0.841630220413208,-0.68774288892746,1.0939935183726
6.942757671,0.216533660888672,-0.779145479202271,-0.684917867183685,1.05974854982049
6.947757671,0.263772010803223,-0.740967750549316,-0.656883656978607,1.02474631975083
6.952757671,0.271852493286133,-0.705142259597778,-0.608758389949799,0.97042061072033
6.957757671,0.283154487609863,-0.660089015960693,-0.567150294780731,0.915179452192536
6.962757671,0.317482948303223,-0.624076843261719,-0.5432049036026,0.886193486805635
6.967757671,0.319653511047363,-0.59093165397644,-0.488639175891876,0.830750763473938
6.972757671,0.316003799438477,-0.567878723144531,-0.468207508325577,0.80097622705812
6.977757671,0.334635734558105,-0.518556118011475,-0.436011552810669,0.755637212261773
6.982757671,0.356725692749023,-0.496924877166748,-0.417097270488739,0.740376719287968
6.987757671,0.388153076171875,-0.469491243362427,-0.415116161108017,0.737160949419287
6.992757671,0.428462982177734,-0.423195362091064,-0.403635621070862,0.724980383313428
6.997757671,0.459884643554688,-0.389305114746094,-0.396609336137772,0.7213538128107
7.002757671,0.474520683288574,-0.37734055519104,-0.407501935958862,0.730488604477002
7.007757671,0.44185733795166,-0.3742516040802,-0.39387372136116,0.700313271784292
7.012757671,0.392610549926758,-0.361293077468872,-0.398644059896469,0.666027640741328
7.017757671,0.373638153076172,-0.334096908569336,-0.396363615989685,0.639007300294902
7.022757671,0.376006126403809,-0.315712690353394,-0.406537711620331,0.637438640900338
7.027757671,0.391046524047852,-0.319039583206177,-0.39966556429863,0.643767196204047
7.032757671,0.362442970275879,-0.309107065200806,-0.389747440814972,0.615479611426144
7.037757671,0.278611183166504,-0.300129413604736,-0.379406422376633,0.558257189507487
7.042757671,0.188220977783203,-0.323832750320435,-0.379879772663116,0.533482359911125
7.047757671,0.0457420349121094,-0.337282180786133,-0.343889981508255,0.483851136833942
7.052757671,-0.118099212646484,-0.366625547409058,-0.322948008775711,0.502650109333428
7.057757671,-0.359268188476563,-0.367535591125488,-0.29068061709404,0.590466987349305
7.062757671,-0.558349609375,-0.314318180084229,-0.278872549533844,0.698799043720141
7.067757671,-0.42839527130127,-0.327387094497681,-0.268911123275757,0.602509759537844
7.072757671,-0.747652053833008,-0.227960586547852,-0.169783696532249,0.799860066654231
7.077757671,-1.34128665924072,-0.0303101539611816,-0.0244238823652267,1.34185138287371
7.082757671,-1.59243965148926,0.165932893753052,0.0811964645981789,1.60311903323731
7.087757671,-2.01114177703857,0.406468868255615,0.192973613739014,2.06086074342988
7.092757671,-2.30535316467285,0.563192129135132,0.33390599489212,2.39652494283114
7.097757671,-2.80269336700439,0.7149338722229,0.69153505563736,2.9739605384533
