Time (s),Linear Acceleration x (m/s^2),Linear Acceleration y (m/s^2),Linear Acceleration z (m/s^2),Absolute acceleration (m/s^2)
0.019688755,0,0,0,0
0.024688755,-0.0661320686340332,0.00712978839874268,0.0673518180847168,0.0946601911245911
0.029688755,-0.0949654579162598,0.0245217084884644,0.112867832183838,0.149528926720943
0.034688755,-0.172462940216064,0.0119214057922363,0.172235012054443,0.244029680656733
0.039688755,-0.202436447143555,-0.0168296098709106,0.214508056640625,0.295427583790427
0.044688755,-0.244019031524658,-0.0334475040435791,0.250360012054443,0.351203870862607
0.049688755,-0.254273891448975,-0.0461404323577881,0.245507717132568,0.356452227573926
0.054688755,-0.244483470916748,-0.10365355014801,0.221738338470459,0.345953922881973
0.059688755,-0.257518291473389,-0.134494543075562,0.167304039001465,0.335253775559174
0.064688755,-0.265891075134277,-0.155239462852478,0.147557258605957,0.341424221797595
0.069688755,-0.27873706817627,-0.175750494003296,0.13902473449707,0.357645727109784
0.074688755,-0.266247272491455,-0.1805499792099,0.0725970268249512,0.329782099886663
0.079688755,-0.282313823699951,-0.173323512077332,0.0399870872497559,0.33367814138422
0.084688755,-0.279261112213135,-0.184384942054749,-0.0336637496948242,0.336329932796006
0.089688755,-0.291850090026855,-0.189648270606995,-0.0703463554382324,0.355093721876844
0.094688755,-0.272621631622314,-0.185259521007538,-0.059234619140625,0.33489160075626
0.099688755,-0.245748043060303,-0.167532861232758,-0.0170273780822754,0.297908193685839
0.104688755,-0.232726573944092,-0.136386334896088,0.0244884490966797,0.270855265234596
0.109688755,-0.205733299255371,-0.118931531906128,0.0134267807006836,0.238015079656779
0.114688755,-0.222975730895996,-0.0946797132492065,-0.0149803161621094,0.242707302201381
0.119688755,-0.256438255310059,-0.0442873239517212,-0.0205516815185547,0.261044665646536
0.124688755,-0.29055643081665,0.0133723020553589,0.0862751007080078,0.303389602579501
0.129688755,-0.283914089202881,0.059524416923523,0.17017650604248,0.336318910361599
0.134688755,-0.284518241882324,0.0841509103775024,0.170251369476318,0.342078257844215
0.139688755,-0.288924217224121,0.0785374641418457,0.104273796081543,0.317046307535127
0.144688755,-0.269514083862305,0.0744909048080444,0.0150957107543945,0.280026100180749
0.149688755,-0.329394340515137,0.0571930408477783,-0.0279378890991211,0.335488004453412
0.154688755,-0.34359073638916,0.0445748567581177,-0.0548272132873535,0.350781321202126
0.159688755,-0.318924903869629,0.0349384546279907,-0.0874094963073731,0.332527006369036
0.164688755,-0.325479507446289,-0.00921213626861572,-0.129956722259521,0.350585970744051
0.169688755,-0.245917320251465,-0.0493488311767578,-0.171037673950195,0.303586102199141
0.174688755,-0.0906829833984375,-0.0810025930404663,-0.184091091156006,0.220622649336666
0.179688755,-0.0201511383056641,-0.111582279205322,-0.124154090881348,0.168139560158347
0.184688755,-0.0145349502563477,-0.12526273727417,-0.0939559936523438,0.157256945384207
0.189688755,0.00941562652587891,-0.129799127578735,-0.0883855819702148,0.157316491962188
0.194688755,0.119921684265137,-0.113128900527954,-0.021728515625,0.166287362366828
0.199688755,-0.00475883483886719,-0.141418159008026,-0.113820552825928,0.181595320567031
0.204688755,0.0392322540283203,-0.123956322669983,-0.201499938964844,0.239805264931451
0.209688755,-0.0193681716918945,-0.118487238883972,-0.27226710319519,0.29756298045176
0.214688755,-0.0488061904907227,-0.116953372955322,-0.319202899932861,0.343439408049501
0.219688755,-0.0910530090332031,-0.13020122051239,-0.256793737411499,0.301970249943074
0.224688755,-0.136876106262207,-0.159238338470459,-0.178474187850952,0.275581118063978
0.229688755,-0.107270240783691,-0.246020138263702,-0.121277093887329,0.294518159865972
0.234688755,-0.107597351074219,-0.330936193466187,-0.0294575691223145,0.349233020321209
0.239688755,-0.184368133544922,-0.425635933876038,0.0872292518615723,0.471981460709734
0.244688755,-0.162755012512207,-0.524659097194672,0.151554584503174,0.569846606071236
0.249688755,-0.171263694763184,-0.615182161331177,0.170841217041016,0.661034844924298
0.254688755,-0.237824440002441,-0.665635347366333,0.222652673721313,0.741083728765666
0.259688755,-0.254958152770996,-0.689782381057739,0.207198619842529,0.764025301247761
0.264688755,-0.343976020812988,-0.70522928237915,0.140025854110718,0.797041456537102
0.269688755,-0.425887107849121,-0.679979026317596,0.173811674118042,0.820951766502534
0.274688755,-0.488903999328613,-0.637455582618713,0.315496921539307,0.863084612232228
0.279688755,-0.476740837097168,-0.594815135002136,0.370649576187134,0.847624904607822
0.284688755,-0.478946685791016,-0.548448622226715,0.280537843704224,0.780312309785509
0.289688755,-0.440547943115234,-0.474632561206818,0.317062377929688,0.721031975601107
0.294688755,-0.40626049041748,-0.414486229419708,0.312040567398071,0.658950480806357
0.299688755,-0.454330444335938,-0.349692583084106,0.233254432678223,0.618957741431969
0.304688755,-0.500142097473145,-0.155086755752563,0.419436931610107,0.67091084286453
0.309688755,-0.51424503326416,0.0312482118606567,0.586815357208252,0.780881981119294
0.314688755,-0.47727108001709,0.184156179428101,0.548835277557373,0.750280843507092
0.319688755,-0.446325302124023,0.273451447486877,0.340023279190064,0.624177698928705
0.324688755,-0.399283409118652,0.36975109577179,0.125256299972534,0.558419425078195
0.329688755,-0.443591117858887,0.437039494514465,-0.0587532520294189,0.625482649026165
0.334688755,-0.49265193939209,0.50413453578949,-0.175464868545532,0.726392100491307
0.339688755,-0.411159515380859,0.537371039390564,-0.295586347579956,0.738370550563589
0.344688755,-0.460487365722656,0.481663942337036,-0.382315397262573,0.76825375386124
0.349688755,-0.317557334899902,0.389576196670532,-0.439167976379395,0.667443469844584
0.354688755,-0.154911041259766,0.317056179046631,-0.469196796417236,0.587084052878318
0.359688755,-0.0737895965576172,0.220458269119263,-0.44931960105896,0.505900046332257
0.364688755,-0.0528678894042969,0.139266967773438,-0.388835668563843,0.41639341876447
0.369688755,-0.0238037109375,0.0649150609970093,-0.355063915252686,0.361733279797709
0.374688755,0.0205421447753906,-0.0188086032867432,-0.379155397415161,0.380177009639747
0.379688755,0.0606822967529297,-0.0759131908416748,-0.416982412338257,0.428158248644595
0.384688755,0.0466279983520508,-0.0986405611038208,-0.399780750274658,0.414401711887589
0.389688755,0.00473117828369141,-0.105740070343018,-0.327153205871582,0.343849627942437
0.394688755,-0.0351619720458984,-0.0535497665405273,-0.179932355880737,0.190996320560093
0.399688755,-0.0777454376220703,0.022185206413269,-0.102227926254272,0.130334513314377
0.404688755,-0.0992202758789063,0.113443851470947,-0.0537700653076172,0.160016844442184
0.409688755,-0.114148139953613,0.179627418518066,-0.00912332534790039,0.213023572413332
0.414688755,-0.122441291809082,0.24092710018158,0.00254940986633301,0.270266973625059
0.419688755,-0.105840682983398,0.281037211418152,0.0174193382263184,0.300811565137257
0.424688755,-0.064666748046875,0.298495650291443,0.0148444175720215,0.305780637514742
0.429688755,-0.00862979888916016,0.276533961296082,0.0176644325256348,0.27723191979897
0.434688755,0.0302639007568359,0.244823455810547,0.012199878692627,0.246988390909681
0.439688755,0.0952920913696289,0.211235404014587,0.00788760185241699,0.231868913073284
0.444688755,0.121660232543945,0.199662566184998,0.0224940776824951,0.234887922314051
0.449688755,0.111663818359375,0.164177536964417,0.0650763511657715,0.20894497710007
0.454688755,0.0641183853149414,0.0940024852752686,0.136644840240479,0.177818578719065
0.459688755,0.126214981079102,0.032390832901001,0.139201402664185,0.190673590222912
0.464688755,0.196928024291992,-0.0509750843048096,0.105697393417358,0.229240146891101
0.469688755,0.296947479248047,-0.119920492172241,0.0729007720947266,0.328440637629708
0.474688755,0.403616905212402,-0.209941804409027,0.0585005283355713,0.458698680210982
0.479688755,0.51894474029541,-0.269990742206574,0.0141434669494629,0.585148427336926
0.484688755,0.627635002136231,-0.32419353723526,-0.0138672590255737,0.706554630842186
0.489688755,0.660322189331055,-0.31843101978302,-0.0180466175079346,0.733313976742902
0.494688755,0.658402442932129,-0.275026559829712,-0.0243648290634155,0.713951700303354
0.499688755,0.628788948059082,-0.221566438674927,-0.0213222503662109,0.667024636958049
0.504688755,0.517073631286621,-0.115541458129883,0.0520983934402466,0.532380701488856
0.509688755,0.345447540283203,-0.030935525894165,0.132729649543762,0.371359892446766
0.514688755,0.136136054992676,0.0320929288864136,0.219373464584351,0.260168596331722
0.519688755,-0.047088623046875,0.0950206518173218,0.287652134895325,0.30657790755708
0.524688755,-0.237079620361328,0.127394676208496,0.348121166229248,0.440027835816952
0.529688755,-0.343408584594727,0.136117577552795,0.343016028404236,0.504100631456072
0.534688755,-0.426644325256348,0.137983918190002,0.331673860549927,0.557738730701573
0.539688755,-0.400467872619629,0.153257727622986,0.300975203514099,0.523878345808458
0.544688755,-0.292356491088867,0.138693809509277,0.268428564071655,0.420430951153173
0.549688755,-0.193726539611816,0.156365275382996,0.203505396842957,0.321550179660622
0.554688755,-0.0487451553344727,0.133545160293579,0.200723648071289,0.245968255881661
0.559688755,0.0180540084838867,0.0893149375915527,0.180950284004211,0.202598397280245
0.564688755,0.210957527160645,0.0346598625183106,0.261796116828918,0.337996436552552
0.569688755,0.18083667755127,-0.0132328271865845,0.300490021705627,0.350957639620197
0.574688755,0.25723934173584,-0.0696984529495239,0.316977620124817,0.414131337790607
0.579688755,0.276442527770996,-0.110154032707214,0.259446024894714,0.394799470510978
0.584688755,0.308413505554199,-0.104104280471802,0.242390990257263,0.405844777936933
0.589688755,0.338716506958008,-0.126107096672058,0.222482085227966,0.424417424435277
0.594688755,0.280341148376465,-0.162997841835022,0.239842176437378,0.403340706492821
0.599688755,0.157088279724121,-0.198814272880554,0.223741412162781,0.338029676573378
0.604688755,0.0961523056030273,-0.256492078304291,0.186177730560303,0.33120326004165
0.609688755,0.0850667953491211,-0.260463953018189,0.172777891159058,0.323929051130339
0.614688755,0.0331764221191406,-0.276522755622864,0.172018766403198,0.327346857869092
0.619688755,0.0126972198486328,-0.29360830783844,0.13202977180481,0.322178395406127
0.624688755,-0.0304079055786133,-0.315292418003082,0.0243226289749146,0.317687802491943
0.629688755,-0.00760650634765625,-0.280979156494141,-0.0555866956710815,0.286525786027375
0.634688755,-0.0246009826660156,-0.226443290710449,-0.0959151983261108,0.247146712553187
0.639688755,-0.0119380950927734,-0.232952296733856,-0.171376705169678,0.289446481655655
0.644688755,0.0296792984008789,-0.205192863941193,-0.219944953918457,0.302259416594669
0.649688755,0.031743049621582,-0.174982070922852,-0.213236570358276,0.277661991064474
0.654688755,0.00432205200195313,-0.153841972351074,-0.196833848953247,0.249859153692887
0.659688755,0.00647258758544922,-0.170612454414368,-0.120828688144684,0.209165187997695
0.664688755,-0.0416469573974609,-0.145937204360962,-0.0677808523178101,0.166211854625619
0.669688755,0.00209808349609375,-0.191120266914368,-0.00946688652038574,0.191366089786476
0.674688755,0.00923347473144531,-0.221970796585083,0.0659436583518982,0.231743085482748
0.679688755,0.0356254577636719,-0.293344080448151,0.129224300384521,0.322519522796235
0.684688755,-0.0037841796875,-0.380641102790833,0.169963419437408,0.416880718067632
0.689688755,0.00648307800292969,-0.455749452114105,0.222558945417404,0.507229807471925
0.694688755,-0.0908422470092773,-0.528784871101379,0.352735370397568,0.642096562268407
0.699688755,-0.207265853881836,-0.605862081050873,0.470657348632813,0.794698895974274
0.704688755,-0.356794357299805,-0.63071596622467,0.495185375213623,0.877674996383717
0.709688755,-0.526559829711914,-0.57806009054184,0.425925254821777,0.890410604855129
0.714688755,-0.635217666625977,-0.478366792201996,0.304683029651642,0.851567977576119
0.719688755,-1.05456829071045,-0.161433041095734,0.302888631820679,1.10901597365213
0.724688755,-1.3049259185791,0.372369050979614,0.565375089645386,1.47008141104447
0.729688755,-1.02663135528564,0.360447764396668,0.462708353996277,1.18236777331427
0.734688755,-0.555819511413574,0.272875308990479,0.295883357524872,0.686253032623437
0.739688755,-0.00678348541259766,0.178721904754639,0.0790678858757019,0.195548626920063
0.744688755,0.535954475402832,0.0710738897323608,-0.141616076231003,0.558886223262909
0.749688755,1.05866146087646,-0.0655709505081177,-0.324425041675568,1.10919576539122
0.754688755,1.41972541809082,-0.203008413314819,-0.451173037290573,1.50345927388398
0.759688755,1.62959003448486,-0.316373944282532,-0.606640934944153,1.76739055589397
0.764688755,1.76984310150146,-0.380650401115418,-0.631170272827148,1.91718941294342
0.769688755,1.85684251785278,-0.442416310310364,-0.615089893341065,2.00547548093334
0.774688755,1.78021574020386,-0.469363331794739,-0.576581060886383,1.92922672039237
0.779688755,1.50268840789795,-0.435250461101532,-0.562383890151978,1.66246535453297
0.784688755,1.14627647399902,-0.360412120819092,-0.522421896457672,1.31025619234384
0.789688755,0.695845603942871,-0.284398913383484,-0.480506747961044,0.892171833951523
0.794688755,0.20548152923584,-0.206790924072266,-0.475253611803055,0.557540259234801
0.799688755,-0.272673606872559,-0.122507572174072,-0.475188702344894,0.561394071897006
0.804688755,-0.682193756103516,-0.0489640235900879,-0.504659175872803,0.849980399930122
0.809688755,-0.997056007385254,-0.00579905509948731,-0.511448204517365,1.12059518864178
0.814688755,-1.16880130767822,0.0194164514541626,-0.540237545967102,1.28776166330962
0.819688755,-1.23402881622314,0.0237522125244141,-0.555374026298523,1.35345173388486
0.824688755,-1.22205448150635,0.0184812545776367,-0.536300539970398,1.33468235236443
0.829688755,-1.15334320068359,0.0117745399475098,-0.514765322208405,1.2630607726085
0.834688755,-1.00662994384766,-0.0103139877319336,-0.481035858392715,1.11570861754012
0.839688755,-0.897408485412598,-0.0306465625762939,-0.453377515077591,1.00589878848034
0.844688755,-0.803180694580078,-0.0497415065765381,-0.442023366689682,0.918127497857635
0.849688755,-0.730997085571289,-0.0598340034484863,-0.463457107543945,0.867599756578684
0.854688755,-0.638339996337891,-0.0627080202102661,-0.478449761867523,0.800202737657426
0.859688755,-0.529195785522461,-0.072512149810791,-0.490520119667053,0.725200785357474
0.864688755,-0.324795722961426,-0.120378494262695,-0.611763715744019,0.703020687772357
0.869688755,-0.232046127319336,-0.168941497802734,-0.764025449752808,0.816162681549281
0.874688755,-0.163548469543457,-0.186318874359131,-0.901583194732666,0.935048170875074
0.879688755,-0.115891456604004,-0.17974317073822,-1.01086449623108,1.03324027548356
0.884688755,-0.12035083770752,-0.161116600036621,-1.07377636432648,1.09244613758778
0.889688755,-0.196245193481445,-0.122013807296753,-1.07847225666046,1.10295147378383
0.894688755,-0.31764030456543,-0.0676647424697876,-1.02473926544189,1.07497183339672
0.899688755,-0.323149681091309,-0.0201715230941772,-0.941925585269928,0.996020288407545
0.904688755,-0.292641639709473,-0.00896310806274414,-0.813223421573639,0.864321583667751
0.909688755,-0.233641624450684,0.000366687774658203,-0.683894276618958,0.722703206529517
0.914688755,-0.185275077819824,0.00285530090332031,-0.54866349697113,0.579108487343244
0.919688755,-0.109830856323242,-0.0147285461425781,-0.423311620950699,0.437575679744749
0.924688755,0.0294952392578125,-0.0524877309799194,-0.309929668903351,0.315723503573675
0.929688755,0.300846099853516,-0.0796310901641846,-0.265063732862473,0.408788782621045
0.934688755,0.55720329284668,-0.138313889503479,-0.213674187660217,0.612587055087697
0.939688755,0.833046913146973,-0.198600053787231,-0.202653661370277,0.880044116698004
0.944688755,1.17748832702637,-0.234498023986816,-0.207662284374237,1.21843822489636
0.949688755,1.46114921569824,-0.27335250377655,-0.240293115377426,1.50579527265637
0.954688755,1.65529441833496,-0.296151161193848,-0.2486761957407,1.69986616295972
0.959688755,1.72511959075928,-0.322641253471375,-0.269543260335922,1.77560934612756
0.964688755,1.72123718261719,-0.314831137657166,-0.269875764846802,1.77048270607597
0.969688755,1.64232730865479,-0.301008820533752,-0.287325322628021,1.69422582314628
0.974688755,1.46248149871826,-0.269917368888855,-0.289457470178604,1.51508849482903
0.979688755,1.22408866882324,-0.234490394592285,-0.308436334133148,1.28394384087116
0.984688755,1.13018608093262,-0.128126502037048,-0.324108839035034,1.18270178726453
0.989688755,1.05236339569092,-0.0529710054397583,-0.392093151807785,1.12428274188568
0.994688755,0.639506340026856,0.0170214176177979,-0.529950618743897,0.830726035404755
0.999688755,0.0732526779174805,0.0834122896194458,-0.681366503238678,0.690350546184577
1.004688755,-0.501352310180664,0.136520385742188,-0.774713277816773,0.932830433397352
1.009688755,-0.932265281677246,0.189178466796875,-0.797399580478668,1.24127077572459
1.014688755,-1.18477916717529,0.204877614974976,-0.737675547599793,1.41061749798344
1.019688755,-1.32585144042969,0.251554250717163,-0.638956546783447,1.49312660274364
1.024688755,-1.31142234802246,0.290833353996277,-0.575535237789154,1.46138749981875
1.029688755,-1.22103404998779,0.297324776649475,-0.542677223682404,1.36887718336704
1.034688755,-1.07370281219482,0.311660408973694,-0.509894132614136,1.22880509679568
1.039688755,-0.957198143005371,0.319933295249939,-0.455354481935501,1.10721872392096
1.044688755,-0.870722770690918,0.31165885925293,-0.425005793571472,1.01780121463861
1.049688755,-0.809825897216797,0.28465461730957,-0.367245554924011,0.933657074396212
1.054688755,-0.706062316894531,0.269562125205994,-0.336478054523468,0.827287867588993
1.059688755,-0.599059104919434,0.248823761940002,-0.305823802947998,0.717156380535253
1.064688755,-0.489846229553223,0.244757771492004,-0.272885680198669,0.611818837378134
1.069688755,-0.359637260437012,0.217175602912903,-0.247531890869141,0.487623049693587
1.074688755,-0.257793426513672,0.219405770301819,-0.265382826328278,0.430144612084563
1.079688755,-0.255117416381836,0.189625859260559,-0.270231485366821,0.417214475210541
1.084688755,0.0269308090209961,0.21589195728302,-0.235843598842621,0.320868834275094
1.089688755,0.242575645446777,0.208850383758545,-0.262441873550415,0.413928935389475
1.094688755,0.230291366577148,0.172948360443115,-0.350964307785034,0.45400572049145
1.099688755,0.111287117004395,0.160700082778931,-0.432283282279968,0.474424045717592
1.104688755,0.131386756896973,0.151843428611755,-0.441597878932953,0.485105754839664
1.109688755,0.258097648620605,0.165751934051514,-0.448277235031128,0.543176379560503
1.114688755,0.319338798522949,0.171132922172546,-0.466034173965454,0.59029788801677
1.119688755,0.421099662780762,0.170897603034973,-0.463002562522888,0.648769827920451
1.124688755,0.44184684753418,0.176838994026184,-0.48921525478363,0.682519034164687
1.129688755,0.460763931274414,0.188383221626282,-0.47177642583847,0.685831345543984
1.134688755,0.462890625,0.187344193458557,-0.441976368427277,0.666864819722627
1.139688755,0.396306037902832,0.205525636672974,-0.406667530536652,0.603885538327298
1.144688755,0.321253776550293,0.189419150352478,-0.383873760700226,0.535203389023476
1.149688755,0.285365104675293,0.18390154838562,-0.344613611698151,0.483747417391156
1.154688755,0.270971298217773,0.188936710357666,-0.287905037403107,0.438191551197289
1.159688755,0.246428489685059,0.191240191459656,-0.209259271621704,0.37561849544136
1.164688755,0.180644989013672,0.186684131622314,-0.170060455799103,0.310490153921064
1.169688755,0.156482696533203,0.175037980079651,-0.125876307487488,0.26640190234184
1.174688755,0.195202827453613,0.165811061859131,-0.0894587635993958,0.271293793636106
1.179688755,0.119190216064453,0.163155674934387,-0.0493210554122925,0.207987135120826
1.184688755,-0.0500192642211914,0.173623919487,0.0297510027885437,0.183118307053613
1.189688755,-0.218228340148926,0.142612457275391,0.136789560317993,0.294403303694558
1.194688755,-0.0944833755493164,0.147337317466736,0.49940636754036,0.529190054057466
1.199688755,0.384953498840332,0.192899227142334,3.26686716079712,3.29512068889687
1.204688755,0.546516418457031,0.49577534198761,9.7877254486084,9.81550013207185
1.209688755,-6.25356960296631,0.54803740978241,49.5873870849609,49.9831615216106
1.214688755,-3.64817047119141,0.457739114761353,15.9008922576904,16.3204487522474
1.219688755,-0.742789268493652,0.168947219848633,2.62194180488586,2.73035856412524
1.224688755,0.114507675170898,0.0900388956069946,0.838777780532837,0.851332588070469
1.229688755,0.333605766296387,0.0164792537689209,-0.784634828567505,0.85276971528786
1.234688755,0.336630821228027,-0.0937191247940064,-1.39812815189362,1.44113355150391
1.239688755,0.401949882507324,-0.0611826181411743,-0.832578539848328,0.926549537707636
1.244688755,0.418495178222656,-0.0538138151168823,-0.802261710166931,0.906453524728663
1.249688755,0.321260452270508,0.0468919277191162,-1.41754460334778,1.45424888982549
1.254688755,0.147103309631348,0.021801233291626,-1.48978972434998,1.49719340776545
1.259688755,-0.147287368774414,0.108414888381958,-1.00835537910461,1.02480628783813
1.264688755,-0.461310386657715,0.138625860214233,-0.924561202526093,1.04251514098114
1.269688755,-0.676427841186523,0.192307591438293,-1.18153703212738,1.37497876068885
1.274688755,-0.760278701782227,0.206881880760193,-0.998763918876648,1.27214511067739
1.279688755,-0.663738250732422,0.241980671882629,-0.713559210300446,1.00412641517625
1.284688755,-0.59671688079834,0.277478933334351,-0.791077017784119,1.0290133343841
1.289688755,-0.504293441772461,0.256488800048828,-0.841319262981415,1.01386216135567
1.294688755,-0.395424842834473,0.25874400138855,-0.615800976753235,0.776221687120029
1.299688755,-0.214302062988281,0.216459393501282,-0.419156312942505,0.518142893336897
1.304688755,0.131093978881836,0.192393898963928,-0.540154576301575,0.588190453813344
1.309688755,0.405723571777344,0.0977083444595337,-0.613660335540772,0.742116934646286
1.314688755,0.655162811279297,0.0838301181793213,-0.436570286750793,0.791744537885182
1.319688755,0.859313011169434,0.0619498491287231,-0.328526973724365,0.922055642267125
1.324688755,1.01497173309326,0.0798441171646118,-0.373269617557526,1.08437673776952
1.329688755,1.13626956939697,0.0689734220504761,-0.386727631092072,1.20225792903895
1.334688755,1.25146102905273,0.0801432132720947,-0.336202383041382,1.29831031892765
1.339688755,1.2514533996582,0.065127968788147,-0.376328408718109,1.30843430673567
1.344688755,1.26352119445801,0.0763814449310303,-0.518404245376587,1.36786801102987
1.349688755,1.1483678817749,0.0841327905654907,-0.597259640693665,1.29712998452046
1.354688755,0.908690452575684,0.0836163759231567,-0.627625644207001,1.10753058025094
1.359688755,0.574277877807617,0.110488772392273,-0.693022191524506,0.906797997190885
1.364688755,0.250295639038086,0.118184804916382,-0.773542582988739,0.821573905824362
1.369688755,-0.0700540542602539,0.166317701339722,-0.766553461551666,0.78751086196577
1.374688755,-0.29349422454834,0.182945966720581,-0.752772569656372,0.828416941044554
1.379688755,-0.455158233642578,0.217595338821411,-0.766922354698181,0.917979655147781
1.384688755,-0.607565879821777,0.218522429466248,-0.768469333648682,1.00370985212953
1.389688755,-0.706248283386231,0.204082250595093,-0.73135232925415,1.03697272495444
1.394688755,-0.756709098815918,0.190582156181335,-0.677769303321838,1.0335866906123
1.399688755,-0.731091499328613,0.13808810710907,-0.623438358306885,0.970689699298344
1.404688755,-0.722554206848145,0.0947093963623047,-0.536767482757568,0.905082196344155
1.409688755,-0.687151908874512,0.0705796480178833,-0.452672123908997,0.825876070817224
1.414688755,-0.619688987731934,0.0400675535202026,-0.394042938947678,0.735452029772062
1.419688755,-0.505339622497559,0.0225269794464111,-0.362649887800217,0.622407053294276
1.424688755,-0.281490325927734,0.00521981716156006,-0.10523584485054,0.300563858644896
1.429688755,0.524600982666016,-0.0459631681442261,1.59922170639038,1.68369500504995
1.434688755,0.639803886413574,-0.0229064226150513,2.30983734130859,2.39691932708852
1.439688755,0.601956367492676,-0.00676333904266357,2.66365838050842,2.73083745015567
1.444688755,0.416607856750488,0.00572800636291504,2.77420973777771,2.80532254572336
1.449688755,-0.229021072387695,-0.00775802135467529,2.56157732009888,2.57180660340895
1.454688755,-0.972700119018555,0.0480749607086182,1.98418796062469,2.21030735113328
1.459688755,-0.814072608947754,0.056734561920166,1.60295152664185,1.79871804903345
1.464688755,-0.549964904785156,0.0447297096252441,1.22251224517822,1.34126743531229
1.469688755,-0.302072525024414,0.0302928686141968,0.848119378089905,0.900817377582776
1.474688755,-0.099421501159668,0.0209428071975708,0.518232107162476,0.528098241769669
1.479688755,0.0329084396362305,0.0193835496902466,0.300112515687943,0.30253298906141
1.484688755,0.0570068359375,0.0550229549407959,0.149518549442291,0.16921318371022
1.489688755,0.232916831970215,0.0453439950942993,-0.160120785236359,0.286260361158965
1.494688755,0.319437980651855,0.0330777168273926,-0.219622656702995,0.389061524916985
1.499688755,0.372809410095215,0.0195889472961426,-0.232367724180222,0.439733262731407
1.504688755,0.383196830749512,0.0177780389785767,-0.236835062503815,0.450828921651639
1.509688755,0.404146194458008,0.00553965568542481,-0.211798906326294,0.456315253964863
1.514688755,0.381691932678223,0.00700247287750244,-0.153786152601242,0.411567669806472
1.519688755,0.382240295410156,0.00646042823791504,-0.131847977638245,0.404392469978801
1.524688755,0.350921630859375,0.00474047660827637,-0.0957647114992142,0.363784748294929
1.529688755,0.327033042907715,0.00582265853881836,-0.0685714930295944,0.334195398176346
1.534688755,0.30324649810791,0.013995885848999,-0.027665913105011,0.304827371119037
1.539688755,0.270861625671387,0.018193244934082,0.0186245143413544,0.272110064049512
1.544688755,0.274786949157715,0.0281355381011963,0.0518624782562256,0.28105016026063
1.549688755,0.247048377990723,0.0451955795288086,0.0857276767492294,0.265376668223889
1.554688755,0.21782398223877,0.0548807382583618,0.102903246879578,0.247079462700763
1.559688755,0.18391227722168,0.0609370470046997,0.122384577989578,0.229161590019366
1.564688755,0.115565299987793,0.0731086730957031,0.133570641279221,0.191157874163805
1.569688755,0.0532321929931641,0.0935289859771729,0.147312223911285,0.18243417690353
1.574688755,-0.0322189331054688,0.0987058877944946,0.127781316637993,0.164648039215452
1.579688755,-0.0972833633422852,0.123407244682312,0.114745959639549,0.194576555825382
1.584688755,-0.159993171691895,0.13556182384491,0.105655521154404,0.234814633748834
1.589688755,-0.229968070983887,0.138959050178528,0.0865099430084229,0.282274514502973
1.594688755,-0.293722152709961,0.145354866981506,0.0671759396791458,0.334534523210328
1.599688755,-0.341811180114746,0.166174530982971,0.0441397055983543,0.382618832794669
1.604688755,-0.372824668884277,0.160149693489075,0.0341218821704388,0.407198306597865
1.609688755,-0.380731582641602,0.168725252151489,0.0197757109999657,0.416912253933506
1.614688755,-0.36030387878418,0.1807781457901,0.0212858021259308,0.4036740125824
1.619688755,-0.329071044921875,0.179909825325012,0.0086989663541317,0.37514126655179
1.624688755,-0.285527229309082,0.168252348899841,-0.020128358155489,0.332023797926099
1.629688755,-0.236331939697266,0.165269017219543,-0.00265929102897644,0.288398518724633
1.634688755,-0.174345016479492,0.145159840583801,-0.0132770054042339,0.227252817280783
1.639688755,-0.0781688690185547,0.140933394432068,-0.0108704548329115,0.161526346266048
1.644688755,0.0148792266845703,0.127854347229004,0.0133850090205669,0.129411297646559
1.649688755,0.123754501342773,0.121402382850647,0.0357807949185371,0.177014068507043
1.654688755,0.214922904968262,0.103803753852844,0.0365107282996178,0.24145415232484
1.659688755,0.231081962585449,0.0801037549972534,0.0490798726677895,0.249448028450997
1.664688755,0.38917350769043,0.0806224346160889,0.0987701639533043,0.409525995925608
1.669688755,0.430896759033203,0.067552924156189,0.101616732776165,0.447840791897604
1.674688755,0.451525688171387,0.0621459484100342,0.12581367790699,0.472828348907837
1.679688755,0.463233947753906,0.0576273202896118,0.13968151807785,0.487255092213476
1.684688755,0.45582389831543,0.0665372610092163,0.139585480093956,0.481338487585549
1.689688755,0.418400764465332,0.0506556034088135,0.139600366353989,0.443974607548735
1.694688755,0.373749732971191,0.0702975988388062,0.12942810356617,0.401724095980405
1.699688755,0.309453010559082,0.0703710317611694,0.10766313970089,0.335118784172813
1.704688755,0.247987747192383,0.0732616186141968,0.116331472992897,0.283545761964841
1.709688755,0.173917770385742,0.0801575183868408,0.111852839589119,0.221773930690768
1.714688755,0.0830965042114258,0.0977996587753296,0.109181493520737,0.168494512658867
1.719688755,0.00384426116943359,0.110781311988831,0.0840501636266708,0.139110414547494
1.724688755,-0.0583515167236328,0.107606291770935,0.0866226926445961,0.14995834226091
1.729688755,-0.123175621032715,0.110217690467834,0.0797917917370796,0.183539921917472
1.734688755,-0.173568725585938,0.110555768013,0.088245615363121,0.223910627200423
1.739688755,-0.212199211120605,0.125041723251343,0.080421082675457,0.259097449413469
1.744688755,-0.23372745513916,0.125846862792969,0.071044959127903,0.274796911151028
1.749688755,-0.229403495788574,0.118120312690735,0.0596767887473106,0.264838991210446
1.754688755,-0.216808319091797,0.112146735191345,0.0422773435711861,0.247729915878007
1.759688755,-0.19793701171875,0.103004932403564,0.0367114283144474,0.226134485818723
1.764688755,-0.170029640197754,0.091040849685669,0.0154736638069153,0.193488886318764
1.769688755,-0.143718719482422,0.0809084177017212,-0.0132583416998386,0.165460043543125
1.774688755,-0.108389854431152,0.0694977045059204,-0.0165509842336178,0.129816125940886
1.779688755,-0.0742969512939453,0.0472303628921509,-0.0429434254765511,0.0979534682497728
1.784688755,-0.0379552841186523,0.0425093173980713,-0.0744761228561401,0.0937781346256177
1.789688755,-0.00627613067626953,0.0262750387191772,-0.069780558347702,0.0748270926822426
1.794688755,0.0210351943969727,0.0323622226715088,-0.0988974347710609,0.106162589756726
1.799688755,0.0411052703857422,0.021356463432312,-0.097093977034092,0.107577795850805
1.804688755,0.0496358871459961,0.00291848182678223,-0.0975785031914711,0.109516223063212
1.809688755,0.0622739791870117,-0.0164134502410889,-0.104637898504734,0.122867976446624
1.814688755,0.0900907516479492,-0.00746607780456543,-0.102779187262058,0.136878220270887
1.819688755,0.0965404510498047,-0.0196632146835327,-0.103713378310204,0.143049521289328
1.824688755,0.084233283996582,-0.0281884670257568,-0.102638691663742,0.135737013495051
1.829688755,0.091609001159668,-0.0391111373901367,-0.10236082971096,0.142827271977513
1.834688755,0.104228973388672,-0.0366911888122559,-0.0906200259923935,0.142905253020927
1.839688755,0.106480598449707,-0.0343636274337769,-0.112795114517212,0.158876412961667
1.844688755,0.124351501464844,-0.0714948177337647,-0.114924311637878,0.183799897401455
1.849688755,0.121747970581055,-0.0686323642730713,-0.100160621106625,0.171945106899794
1.854688755,0.125736236572266,-0.0769686698913574,-0.118541777133942,0.189171695182642
1.859688755,0.114222526550293,-0.104189276695251,-0.137541979551315,0.206929908637457
1.864688755,0.119292259216309,-0.11100435256958,-0.135486215353012,0.211917729199341
1.869688755,0.114903450012207,-0.12308657169342,-0.170453801751137,0.23959884283394
1.874688755,0.0895442962646484,-0.125296831130981,-0.188793689012527,0.243640172992788
1.879688755,0.0697517395019531,-0.137121915817261,-0.229229971766472,0.276069022016237
1.884688755,0.0566930770874023,-0.145504355430603,-0.257352471351624,0.301024777966369
1.889688755,0.042933464050293,-0.161466240882874,-0.291320592164993,0.335830785812686
1.894688755,0.0166311264038086,-0.151687145233154,-0.313919425010681,0.349042962675772
1.899688755,-0.0117673873901367,-0.159089684486389,-0.335633546113968,0.37161522626637
1.904688755,-0.048065185546875,-0.161224722862244,-0.386176079511642,0.421231097748784
1.909688755,-0.0767316818237305,-0.16118049621582,-0.396896868944168,0.435194241613513
1.914688755,-0.0839319229125977,-0.160351514816284,-0.436447739601135,0.472486830917671
1.919688755,-0.0921239852905273,-0.170390486717224,-0.45354437828064,0.493175678333303
1.924688755,-0.126574516296387,-0.1588054895401,-0.489645749330521,0.530087965833202
1.929688755,-0.164689064025879,-0.162198901176453,-0.497205227613449,0.548310140083795
1.934688755,-0.171283721923828,-0.174228668212891,-0.51384699344635,0.568974933452406
1.939688755,-0.160039901733398,-0.16719388961792,-0.531557500362396,0.579758521337914
1.944688755,-0.146968841552734,-0.171470522880554,-0.533832132816315,0.57963671953345
1.949688755,-0.128159523010254,-0.172391533851624,-0.53743302822113,0.578772808712422
1.954688755,-0.105833053588867,-0.168569922447205,-0.535101115703583,0.570920010170444
1.959688755,-0.0871753692626953,-0.179941296577454,-0.555294334888458,0.59019506400789
1.964688755,-0.0389165878295898,-0.183159589767456,-0.550001919269562,0.581002622483137
1.969688755,0.00785255432128906,-0.194861769676209,-0.551252901554108,0.584732873509379
1.974688755,0.0536870956420898,-0.199547171592712,-0.54923939704895,0.586826459185191
1.979688755,0.0799922943115234,-0.20646595954895,-0.551956415176392,0.594712404323353
1.984688755,0.102263450622559,-0.190477967262268,-0.544585943222046,0.585929619408887
1.989688755,0.145295143127441,-0.20650589466095,-0.54432213306427,0.600034955389917
1.994688755,0.180256843566895,-0.209183931350708,-0.54170024394989,0.608021053158037
1.999688755,0.206073760986328,-0.222979068756104,-0.550228118896484,0.628440166519258
2.004688755,0.223127365112305,-0.211587309837341,-0.565937399864197,0.644080857743196
2.009688755,0.232168197631836,-0.206975340843201,-0.59088933467865,0.667750754058542
2.014688755,0.223100662231445,-0.201300621032715,-0.599505007266998,0.670598314383857
2.019688755,0.188517570495605,-0.200200200080872,-0.597271502017975,0.657534973686415
2.024688755,0.165611267089844,-0.18984842300415,-0.617962241172791,0.667343125400693
2.029688755,0.13396167755127,-0.184914708137512,-0.626480102539063,0.666795695258515
2.034688755,0.129015922546387,-0.175439476966858,-0.643296957015991,0.679157635056055
2.039688755,0.111231803894043,-0.176785707473755,-0.678036212921143,0.709477840807565
2.044688755,0.0955696105957031,-0.160580635070801,-0.655607342720032,0.681718914698409
2.049688755,0.05047607421875,-0.158363699913025,-0.649941384792328,0.670858181126569
2.054688755,0.00575351715087891,-0.160401225090027,-0.652530133724213,0.671980082582903
2.059688755,-0.00904464721679688,-0.151517748832703,-0.647431969642639,0.664986909021489
2.064688755,-0.0316696166992188,-0.142216205596924,-0.646229445934296,0.662450685371227
2.069688755,-0.0748004913330078,-0.144744992256165,-0.632299482822418,0.652953951105585
2.074688755,-0.109391212463379,-0.125879645347595,-0.63831627368927,0.659742213090537
2.079688755,-0.0866241455078125,-0.135147452354431,-0.596606850624085,0.617825469428414
2.084688755,-0.0377826690673828,-0.121258139610291,-0.58297336101532,0.596648142674644
2.089688755,-0.0591764450073242,-0.128210425376892,-0.613395631313324,0.629439405608911
2.094688755,-0.0986175537109375,-0.132829666137695,-0.611299276351929,0.633289781517571
2.099688755,-0.0730609893798828,-0.134939312934876,-0.584650874137878,0.604452786390045
2.104688755,-0.0716838836669922,-0.110288262367249,-0.540498971939087,0.55627440949659
2.109688755,-0.0323829650878906,-0.112753629684448,-0.532611966133118,0.545378349316405
2.114688755,-0.00519275665283203,-0.115811824798584,-0.520639419555664,0.533389865558104
2.119688755,0.0247535705566406,-0.115610837936401,-0.492457121610642,0.506451006247098
2.124688755,0.0529356002807617,-0.108041644096375,-0.456609457731247,0.472194209542806
2.129688755,0.0745248794555664,-0.109809398651123,-0.446769416332245,0.466063271519911
2.134688755,0.0824317932128906,-0.103505969047546,-0.416885286569595,0.437380644655177
2.139688755,0.0794897079467773,-0.1065354347229,-0.372501164674759,0.395506675297792
2.144688755,0.0918102264404297,-0.109385251998901,-0.339536815881729,0.368346983662157
2.149688755,0.11337947845459,-0.0925087928771973,-0.314187675714493,0.346592957898897
2.154688755,0.130756378173828,-0.0864005088806152,-0.280110508203506,0.320973792036037
2.159688755,0.14116382598877,-0.0746926069259644,-0.285742431879044,0.327345304950803
2.164688755,0.131108283996582,-0.0736231803894043,-0.248754113912582,0.29066882187743
2.169688755,0.126938819885254,-0.0781021118164063,-0.219139963388443,0.26502023963828
2.174688755,0.117831230163574,-0.0697139501571655,-0.208544105291367,0.249469191484948
2.179688755,0.0950222015380859,-0.0620368719100952,-0.179609954357147,0.212455943587631
2.184688755,0.061528205871582,-0.0628969669342041,-0.151410132646561,0.17511932170765
2.189688755,0.0228786468505859,-0.0647015571594238,-0.132837504148483,0.14951764607887
2.194688755,-0.0234994888305664,-0.055950403213501,-0.133645474910736,0.146778017969884
2.199688755,-0.0504217147827148,-0.0437647104263306,-0.121247202157974,0.138414534032618
2.204688755,-0.071375846862793,-0.0404932498931885,-0.109172612428665,0.136575525284703
2.209688755,-0.10145092010498,-0.0375217199325562,-0.100715428590775,0.147796367387929
2.214688755,-0.120579719543457,-0.050126314163208,-0.0899240374565125,0.158551091605349
2.219688755,-0.126306533813477,-0.0367250442504883,-0.0908010303974152,0.159833965352823
2.224688755,-0.140408515930176,-0.0465573072433472,-0.0634591281414032,0.160963334793775
2.229688755,-0.14811897277832,-0.0507520437240601,-0.0443555116653442,0.162734174204954
2.234688755,-0.168854713439941,-0.0554873943328857,-0.0271564424037933,0.179800549345013
2.239688755,-0.191967010498047,-0.0574358701705933,-0.00816723704338074,0.200541556947016
2.244688755,-0.172039985656738,-0.0650619268417358,0.0269586443901062,0.185896690386038
2.249688755,-0.140641212463379,-0.0837558507919312,0.0222360193729401,0.1651951383746
2.254688755,-0.0393362045288086,-0.076174259185791,0.0470550358295441,0.0977958646679705
2.259688755,-0.00510025024414063,-0.0882738828659058,0.078618586063385,0.11831810099635
2.264688755,0.00853633880615234,-0.0939469337463379,0.0996129214763641,0.137191944244582
2.269688755,-0.00267887115478516,-0.091718316078186,0.137016624212265,0.164902944683856
2.274688755,-0.0116090774536133,-0.106834650039673,0.162668347358704,0.194960007080517
2.279688755,0.0197906494140625,-0.0843044519424439,0.191004306077957,0.209717799344424
2.284688755,0.0405950546264648,-0.091759204864502,0.207355171442032,0.230355979434539
2.289688755,0.0277957916259766,-0.0840625762939453,0.21880678832531,0.236041380657136
2.294688755,0.0219202041625977,-0.0810128450393677,0.230193004012108,0.245015092408653
2.299688755,0.0312290191650391,-0.0833804607391357,0.243916258215904,0.259658802841592
2.304688755,0.0338211059570313,-0.0776480436325073,0.258963525295258,0.27246136115321
2.309688755,0.0350189208984375,-0.0887690782546997,0.257940232753754,0.2750262491984
2.314688755,0.0171670913696289,-0.075440526008606,0.288393259048462,0.29859111482953
2.319688755,0.0213613510131836,-0.0769107341766357,0.316000699996948,0.325926388540816
2.324688755,0.0156612396240234,-0.0725899934768677,0.318424165248871,0.326968699716002
2.329688755,0.00612831115722656,-0.0765324831008911,0.325189471244812,0.334130168311256
2.334688755,-0.000314712524414063,-0.0826385021209717,0.361900210380554,0.371215548368142
2.339688755,0.370471954345703,-0.157671809196472,1.38000702857971,1.43754278798978
2.344688755,0.853363990783691,-0.266488671302795,3.49145317077637,3.60409372192558
2.349688755,0.658498764038086,-0.225783348083496,4.45192861557007,4.50602564802322
2.354688755,-0.15822696685791,-0.175467610359192,4.54425859451294,4.55039677710977
2.359688755,-1.23354339599609,-0.0331462621688843,4.22450256347656,4.40103963778121
2.364688755,-1.46677303314209,0.00880968570709229,3.88234853744507,4.15019649022995
2.369688755,-1.30940437316895,-0.124108195304871,3.2722954750061,3.52673508111415
2.374688755,-0.967349052429199,-0.216044187545776,2.58367109298706,2.76727223036422
2.379688755,-0.424008369445801,-0.291823387145996,1.96372544765472,2.03006443750246
2.384688755,-0.0124635696411133,-0.311199426651001,1.44760847091675,1.48073316596409
2.389688755,0.169034957885742,-0.28573489189148,0.981089472770691,1.03573828693022
2.394688755,0.271825790405273,-0.259263634681702,0.657822728157044,0.757520715411661
2.399688755,0.340335845947266,-0.194552540779114,0.441008031368256,0.590056999697109
2.404688755,0.414751052856445,-0.158298492431641,0.134848743677139,0.463962317675652
2.409688755,0.319429397583008,-0.148348569869995,0.0233749002218246,0.352971421198794
2.414688755,0.0888986587524414,-0.138471126556396,0.0042470395565033,0.16460638433176
2.419688755,-0.150510787963867,-0.1492600440979,0.0397865176200867,0.215673422196489
2.424688755,-0.190279006958008,-0.140736937522888,0.0808958411216736,0.250114220273518
2.429688755,-0.178305625915527,-0.135207533836365,0.119928240776062,0.253883351905714
2.434688755,-0.107337951660156,-0.115549921989441,0.159292072057724,0.224158837788759
2.439688755,-0.0645427703857422,-0.116931319236755,0.21015602350235,0.249006539757162
2.444688755,-0.0145816802978516,-0.114250183105469,0.259166061878204,0.283606730120072
2.449688755,0.0337581634521484,-0.118760824203491,0.271177113056183,0.297961026999573
2.454688755,0.142107963562012,-0.126073122024536,0.246613204479218,0.311299177686456
2.459688755,0.344640731811523,-0.110090613365173,0.211402922868729,0.419032663371418
2.464688755,0.4837646484375,-0.106502771377563,0.165604889392853,0.522298817517117
2.469688755,0.57022762298584,-0.113504409790039,0.0855445563793182,0.587673943768141
2.474688755,0.564397811889648,-0.101977944374084,-0.00168034434318542,0.57353920071927
2.479688755,0.486858367919922,-0.108185529708862,-0.0628449320793152,0.502677495756565
2.484688755,0.342777252197266,-0.105757594108582,-0.133627623319626,0.382801848283933
2.489688755,0.168458938598633,-0.0929719209671021,-0.181800097227097,0.264713935095742
2.494688755,0.0198183059692383,-0.0753570795059204,-0.245816260576248,0.257870294231115
2.499688755,-0.104820251464844,-0.0603371858596802,-0.310184359550476,0.332929719346828
2.504688755,-0.193374633789063,-0.0350903272628784,-0.368053138256073,0.417238771737016
2.509688755,-0.256082534790039,-0.0149314403533936,-0.417977869510651,0.490414836578362
2.514688755,-0.342398643493652,-0.00190269947052002,-0.427253425121307,0.547527114040444
2.519688755,-0.418674468994141,0.00866472721099854,-0.415307462215424,0.589782736825165
2.524688755,-0.479972839355469,0.0161914825439453,-0.408796340227127,0.630674669230511
2.529688755,-0.491442680358887,0.0201437473297119,-0.375744789838791,0.61895543113039
2.534688755,-0.451844215393066,0.00661861896514893,-0.32881486415863,0.558861535617581
2.539688755,-0.378731727600098,0.0151208639144897,-0.275317698717117,0.468472194738775
2.544688755,-0.285394668579102,0.0212043523788452,-0.233762621879578,0.369519559429803
2.549688755,-0.202613830566406,0.0107274055480957,-0.184026211500168,0.273921682394239
2.554688755,-0.134000778198242,0.0159684419631958,-0.155951827764511,0.206233295758852
2.559688755,-0.0713167190551758,0.0224740505218506,-0.123999834060669,0.144800263158349
2.564688755,-0.0237607955932617,0.0339827537536621,-0.100903809070587,0.109091620415412
2.569688755,0.0159282684326172,0.00844812393188477,-0.0962987542152405,0.0979720909067337
2.574688755,0.0605278015136719,0.036923885345459,-0.113584220409393,0.133896837868161
2.579688755,0.100597381591797,0.0340185165405273,-0.125348389148712,0.164284239392952
2.584688755,0.12399959564209,0.0424631834030151,-0.136035859584808,0.188904147008735
2.589688755,0.150766372680664,0.034711480140686,-0.150183916091919,0.215616777263613
2.594688755,0.192787170410156,0.0399532318115234,-0.171983122825623,0.261421782458526
2.599688755,0.209324836730957,0.0333627462387085,-0.195844203233719,0.288591254284118
2.604688755,0.263538360595703,0.0346815586090088,-0.203614056110382,0.334834230416699
2.609688755,0.333138465881348,0.0371890068054199,-0.232465535402298,0.407927058218536
2.614688755,0.37977409362793,0.0343985557556152,-0.253387808799744,0.457839496414762
2.619688755,0.394491195678711,0.0282998085021973,-0.24672344326973,0.466150876957398
2.624688755,0.362872123718262,0.0303241014480591,-0.256983876228333,0.445686483911923
2.629688755,0.327934265136719,0.0508240461349487,-0.267209082841873,0.426057108694929
2.634688755,0.294296264648438,0.0478769540786743,-0.251673310995102,0.390181944206946
2.639688755,0.251723289489746,0.0668587684631348,-0.237263441085815,0.352318960414889
2.644688755,0.179782867431641,0.0711847543716431,-0.233456343412399,0.303135304701353
2.649688755,0.0994319915771484,0.0882531404495239,-0.230441570281982,0.266042581295227
2.654688755,-0.00821971893310547,0.0823206901550293,-0.228204637765884,0.242737752533054
2.659688755,-0.122296333312988,0.10676121711731,-0.192971915006638,0.25217555512678
2.664688755,-0.270688056945801,0.100156664848328,-0.181483179330826,0.340939182357584
2.669688755,-0.364583015441895,0.105821013450623,-0.167386472225189,0.414894074578579
2.674688755,-0.400495529174805,0.115378141403198,-0.178200751543045,0.453281691945714
2.679688755,-0.400899887084961,0.124638438224792,-0.170163065195084,0.453002128587092
2.684688755,-0.380277633666992,0.117833971977234,-0.159535855054855,0.428891143144018
2.689688755,-0.345810890197754,0.124543428421021,-0.15077343583107,0.397276813185127
2.694688755,-0.298445701599121,0.112766861915588,-0.136327832937241,0.346945932362155
2.699688755,-0.254433631896973,0.105022430419922,-0.132067561149597,0.305299892957063
2.704688755,-0.181306838989258,0.0999010801315308,-0.129688173532486,0.244277338347042
2.709688755,-0.0790767669677734,0.0902862548828125,-0.110634982585907,0.163232479202589
2.714688755,-0.00266551971435547,0.0813924074172974,-0.0956627726554871,0.125631186624446
2.719688755,0.057276725769043,0.0611274242401123,-0.106153041124344,0.135224455809589
2.724688755,0.0989255905151367,0.0620527267456055,-0.111155033111572,0.1612211361496
2.729688755,0.136556625366211,0.0480281114578247,-0.106695801019669,0.179828822430782
2.734688755,0.153224945068359,0.0531109571456909,-0.119722008705139,0.20157384981323
2.739688755,0.151252746582031,0.0419609546661377,-0.114570200443268,0.194330764148944
2.744688755,0.176307678222656,0.039142370223999,-0.10138812661171,0.207113675948375
2.749688755,0.15241527557373,0.0493036508560181,-0.0834745168685913,0.180635714027966
2.754688755,0.174764633178711,0.0513509511947632,-0.0720808207988739,0.195895997727712
2.759688755,0.165650367736816,0.053144097328186,-0.0584670305252075,0.183528562002228
2.764688755,0.150866508483887,0.042035698890686,-0.0456950962543488,0.163143327123855
2.769688755,0.15134334564209,0.0486545562744141,-0.0327363312244415,0.162307552191626
2.774688755,0.148429870605469,0.0331853628158569,-0.027910977602005,0.154634140680109
2.779688755,0.145404815673828,0.0478399991989136,-0.0049603283405304,0.15315296537037
2.784688755,0.124364852905273,0.050533652305603,-0.00131481885910034,0.134246025647414
2.789688755,0.0936107635498047,0.0564601421356201,-0.0024847686290741,0.109347596121231
2.794688755,0.0650386810302734,0.053708553314209,-0.0042593777179718,0.084455793334781
2.799688755,0.0459470748901367,0.0665279626846314,0.00239545106887817,0.0808878340404224
2.804688755,0.0473270416259766,0.0610244274139404,0.00547805428504944,0.0774198856174313
2.809688755,0.0339164733886719,0.0647932291030884,0.00236660242080688,0.0731716510114946
2.814688755,0.00924301147460938,0.0591844320297241,0.0100294649600983,0.060735660226811
2.819688755,-0.00736904144287109,0.0609716176986694,0.0165176093578339,0.0635977386034869
2.824688755,-0.0335979461669922,0.0724574327468872,0.0200928151607513,0.0823566801661766
2.829688755,-0.0466814041137695,0.0881204605102539,0.0217854082584381,0.102073370981658
2.834688755,-0.0622177124023438,0.086239218711853,0.0176870822906494,0.107801110664815
2.839688755,-0.118019104003906,0.0842182636260986,0.0268186777830124,0.14744648627929
2.844688755,-0.14549732208252,0.0964401960372925,0.0442290455102921,0.180073292333003
2.849688755,-0.160385131835938,0.10106372833252,0.0382303446531296,0.193387763187844
2.854688755,-0.166548728942871,0.096329927444458,0.0248946696519852,0.194004326268828
2.859688755,-0.176105499267578,0.0990409851074219,0.0192036628723145,0.202955769247994
2.864688755,-0.180200576782227,0.103775262832642,0.0556827336549759,0.215272199496177
2.869688755,-0.165583610534668,0.0959873199462891,0.0570459961891174,0.199714154103751
2.874688755,-0.143800735473633,0.102638959884644,0.0590813010931015,0.18629011715014
2.879688755,-0.118224143981934,0.0961846113204956,0.0687442421913147,0.167195091164765
2.884688755,-0.0772418975830078,0.0903670787811279,0.0776123106479645,0.141972498864303
2.889688755,-0.0365591049194336,0.0971211194992065,0.0588908940553665,0.119319811464525
2.894688755,0.00715923309326172,0.0809119939804077,0.0863174647092819,0.118527254680969
2.899688755,0.0500926971435547,0.0633095502853394,0.0904917567968369,0.121268856317794
2.904688755,0.102972984313965,0.0708189010620117,0.100389719009399,0.16030236407783
2.909688755,0.129988670349121,0.0612254142761231,0.0899857431650162,0.169537723664604
2.914688755,0.180509567260742,0.0517027378082275,0.098314955830574,0.21194977591282
2.919688755,0.203587532043457,0.0463449954986572,0.107681691646576,0.23492783685035
2.924688755,0.203824996948242,0.0507363080978394,0.0994936227798462,0.232417261222587
2.929688755,0.211654663085938,0.055538535118103,0.108619675040245,0.244295843384481
2.934688755,0.189278602600098,0.0467541217803955,0.0993781387805939,0.218834073611028
2.939688755,0.176839828491211,0.0552994012832642,0.110014408826828,0.2154843819691
2.944688755,0.166571617126465,0.0522403717041016,0.086338996887207,0.194755185942242
2.949688755,0.135381698608398,0.0592694282531738,0.0814096480607987,0.168726406471946
2.954688755,0.0782871246337891,0.0617821216583252,0.0684030950069428,0.120933402526181
2.959688755,0.052947998046875,0.0749536752700806,0.0759175419807434,0.11910086949331
2.964688755,0.0129776000976563,0.0793403387069702,0.0687568187713623,0.105786613415826
2.969688755,-0.0137996673583984,0.0904361009597778,0.0701832175254822,0.115303092752271
2.974688755,-0.041499137878418,0.0790172815322876,0.0675853490829468,0.11195395766148
2.979688755,-0.0755224227905273,0.0745208263397217,0.0761095881462097,0.130574343997172
2.984688755,-0.0827751159667969,0.0888874530792236,0.0664920210838318,0.138469809005576
2.989688755,-0.0960359573364258,0.0937180519104004,0.0798025131225586,0.156123090720369
2.994688755,-0.100899696350098,0.0895520448684692,0.0667005330324173,0.15049677262478
2.999688755,-0.108744621276855,0.0930582284927368,0.0550214350223541,0.153338138956922
3.004688755,-0.111441612243652,0.1029052734375,0.0705037862062454,0.167270774823719
3.009688755,-0.119922637939453,0.0888519287109375,0.0601403415203095,0.160912911241423
3.014688755,-0.120025634765625,0.0807163715362549,0.0580932646989822,0.155872104746988
3.019688755,-0.12627124786377,0.0899081230163574,0.0581918656826019,0.165572316082792
3.024688755,-0.129635810852051,0.0848814249038696,0.0579010546207428,0.165417145046014
3.029688755,-0.123252868652344,0.0714823007583618,0.0542881041765213,0.152473562324167
3.034688755,-0.0973415374755859,0.0664964914321899,0.0491697490215302,0.127729489585383
3.039688755,-0.0824079513549805,0.0761262178421021,0.0375030934810638,0.118290969689649
3.044688755,-0.0630054473876953,0.0594298839569092,0.025673896074295,0.0903368498857971
3.049688755,-0.0294809341430664,0.0521469116210938,0.0390206277370453,0.0714915047999344
3.054688755,0.00616455078125,0.0472453832626343,0.0276291370391846,0.0550771925527968
3.059688755,0.0318012237548828,0.0358775854110718,0.0320150256156921,0.0576496386147415
3.064688755,0.0639686584472656,0.0377144813537598,0.0408585071563721,0.0847572355281443
3.069688755,0.106329917907715,0.0279507637023926,0.0442907214164734,0.118528328417303
3.074688755,0.118959426879883,0.0173096656799316,0.0267848372459412,0.123160047401066
3.079688755,0.133571624755859,0.0144835710525513,0.0025603175163269,0.134378971554849
3.084688755,0.138675689697266,0.0204490423202515,0.00302156805992126,0.140207846136971
3.089688755,0.168365478515625,0.015110969543457,-0.00265157222747803,0.169063025501191
3.094688755,0.183566093444824,0.0128058195114136,-0.0102532804012299,0.184297665299751
3.099688755,0.17264461517334,0.021437406539917,-0.0172122120857239,0.174819866698245
3.104688755,0.145256996154785,-0.00470232963562012,-0.0171416103839874,0.146340498982577
3.109688755,0.138060569763184,-0.00870764255523682,-0.0243888199329376,0.140468354087054
3.114688755,0.114253044128418,0.000636100769042969,-0.0247855484485626,0.116912301015311
3.119688755,0.0841703414916992,0.00900685787200928,-0.0360782742500305,0.0920185402428025
3.124688755,0.0524539947509766,0.0132218599319458,-0.0263812839984894,0.060184809468872
3.129688755,0.0432863235473633,0.0087658166885376,-0.0451099574565887,0.0631304491525231
3.134688755,0.0318355560302734,0.00816249847412109,-0.0370164215564728,0.0495009542730563
3.139688755,0.00777244567871094,0.00707924365997314,-0.0412389039993286,0.042557887702418
3.144688755,-0.019556999206543,0.0106863975524902,-0.0629030168056488,0.0667342852952388
3.149688755,-0.0517435073852539,-0.00267016887664795,-0.0698703527450562,0.0869849788818519
3.154688755,-0.030186653137207,0.00198781490325928,-0.0624537765979767,0.0693949540461383
3.159688755,0.0769748687744141,-0.011725902557373,-0.0705673396587372,0.105082713326859
3.164688755,0.135841369628906,-0.0223357677459717,-0.0856322944164276,0.162125426970851
3.169688755,0.144052505493164,-0.0250396728515625,-0.077692985534668,0.165572671527222
3.174688755,0.109722137451172,-0.0309246778488159,-0.0881417691707611,0.144098072920697
3.179688755,0.130101203918457,-0.0481859445571899,-0.0883875489234924,0.164500964491407
3.184688755,0.183684349060059,-0.0475724935531616,-0.0802026093006134,0.205998885363756
3.189688755,0.16983699798584,-0.0693026781082153,-0.0852120220661163,0.202258635866085
3.194688755,0.152085304260254,-0.0758599042892456,-0.0851459801197052,0.190090775108243
3.199688755,0.121862411499023,-0.0713688135147095,-0.0918406546115875,0.168459670895855
3.204688755,0.0654506683349609,-0.0663871765136719,-0.0844220817089081,0.12577016765122
3.209688755,-0.0255613327026367,-0.0568326711654663,-0.0987187027931213,0.116742094047064
3.214688755,-0.0895767211914063,-0.0438766479492188,-0.0999838709831238,0.141230038134359
3.219688755,-0.0643424987792969,-0.0452511310577393,-0.11414048075676,0.138620602215373
3.224688755,-0.0326871871948242,-0.0487666130065918,-0.0884615778923035,0.106170078242602
3.229688755,-0.0228986740112305,-0.0607540607452393,-0.0971670150756836,0.11686245756113
3.234688755,-0.0802459716796875,-0.0579882860183716,-0.107420265674591,0.146086175813338
3.239688755,-0.11922550201416,-0.0450184345245361,-0.0923292934894562,0.157372418847238
3.244688755,-0.178826332092285,-0.0309442281723022,-0.107552230358124,0.210959438190773
3.249688755,-0.230439186096191,-0.0323531627655029,-0.110006749629974,0.257391589982575
3.254688755,-0.26085376739502,-0.00309276580810547,-0.101191908121109,0.279810749317659
3.259688755,-0.288806915283203,0.00539827346801758,-0.105295985937119,0.307450516874349
3.264688755,-0.311017990112305,0.00721490383148193,-0.104558229446411,0.32820217603752
3.269688755,-0.297990798950195,0.00760245323181152,-0.0933876037597656,0.312374067569811
3.274688755,-0.297654151916504,0.0045318603515625,-0.0446684956550598,0.301021272363707
3.279688755,-0.267389297485352,0.0247447490692139,-0.025259792804718,0.269717252226745
3.284688755,-0.224555969238281,0.025439977645874,-0.0210733413696289,0.226972821059367
3.289688755,-0.15787410736084,0.0404032468795776,-0.0099758505821228,0.163267185093119
3.294688755,-0.0882625579833984,0.041749119758606,0.0388880372047424,0.105097800072259
3.299688755,-0.0381889343261719,0.052165150642395,0.10310360789299,0.121696144585866
3.304688755,-0.00366020202636719,0.0410212278366089,0.289048969745636,0.291968226221811
3.309688755,0.0653581619262695,0.0306762456893921,0.48479837179184,0.490145062886484
3.314688755,0.229832649230957,0.0156570672988892,1.08930373191834,1.11339607093798
3.319688755,0.356600761413574,0.0176945924758911,1.73446619510651,1.77083318909797
3.324688755,0.176783561706543,0.067141056060791,1.88685238361359,1.89630489812342
3.329688755,-0.473080635070801,0.116671919822693,1.50165271759033,1.57872686314021
3.334688755,-0.497042655944824,0.153748154640198,1.18887519836426,1.29773423094623
3.339688755,-0.330390930175781,0.122749805450439,0.840920686721802,0.911796733289391
3.344688755,-0.153570175170898,0.099953293800354,0.463200867176056,0.498125991086804
3.349688755,-0.00288009643554688,0.0580344200134277,0.174398213624954,0.183823354820186
3.354688755,0.0921449661254883,0.0471105575561523,0.0727629363536835,0.126509068142679
3.359688755,0.171405792236328,0.025810718536377,0.0379477143287659,0.177443421479369
3.364688755,0.236310005187988,0.0254241228103638,0.0269566774368286,0.239197548129275
3.369688755,0.278340339660645,0.0130825042724609,-0.00505444407463074,0.278693458849226
3.374688755,0.27095890045166,0.00753772258758545,-0.00940176844596863,0.27122672479992
3.379688755,0.188278198242188,0.00845026969909668,-0.0137696862220764,0.188970080303646
3.384688755,0.0986108779907227,0.00091707706451416,-0.00708416104316711,0.0988692653261314
3.389688755,0.00246334075927734,-0.00394320487976074,0.0101856589317322,0.0111966316494588
3.394688755,-0.098332405090332,0.0109454393386841,0.00958523154258728,0.0994029234826169
3.399688755,-0.139579772949219,0.00598728656768799,-0.00379109382629395,0.139759554268747
3.404688755,-0.155550003051758,0.00974369049072266,-0.0122995972633362,0.156339448146081
3.409688755,-0.148734092712402,0.0128003358840942,-0.0219488143920898,0.150888798083044
3.414688755,-0.12916374206543,0.00700628757476807,-0.0360758900642395,0.134290097080359
3.419688755,-0.0868072509765625,-0.00189316272735596,-0.0416246354579926,0.096289631654872
3.424688755,-0.0363731384277344,0.00533664226531982,-0.0468631982803345,0.059562104586835
3.429688755,0.0614547729492188,0.000716686248779297,-0.0606418251991272,0.0863402207600879
3.434688755,0.152131080627441,0.00682854652404785,-0.0745851397514343,0.169568386830344
3.439688755,0.222034454345703,0.007942795753479,-0.0955002307891846,0.241831927176217
3.444688755,0.251708030700684,0.00183486938476563,-0.0943490862846375,0.26881601430648
3.449688755,0.240242004394531,-0.00349235534667969,-0.0971691906452179,0.259172276356898
3.454688755,0.188469886779785,0.00903213024139404,-0.100820332765579,0.213932739660027
3.459688755,0.117527008056641,-0.00615453720092773,-0.105144917964935,0.157816126314
3.464688755,0.0334739685058594,0.00452136993408203,-0.116236358880997,0.121044787081162
3.469688755,-0.0181255340576172,0.00721144676208496,-0.127146661281586,0.128634417728423
3.474688755,-0.0490427017211914,0.00389409065246582,-0.102549582719803,0.113739911421317
3.479688755,-0.0715932846069336,-0.0125243663787842,-0.106526434421539,0.128958673165344
3.484688755,-0.130732536315918,-0.0359386205673218,-0.0775217115879059,0.156180012381205
3.489688755,-0.219149589538574,-0.0490849018096924,-0.0947196483612061,0.243736911374259
3.494688755,-0.310970306396484,-0.0548775196075439,-0.0901165902614594,0.328382510890808
3.499688755,-0.355478286743164,-0.0540940761566162,-0.106335192918777,0.374964204523801
3.504688755,-0.385904312133789,-0.0400322675704956,-0.128904283046722,0.408828857540754
3.509688755,-0.389318466186523,-0.0388501882553101,-0.119753301143646,0.409168740712314
3.514688755,-0.396090507507324,-0.0361390113830566,-0.153866678476334,0.426460634791177
3.519688755,-0.409109115600586,-0.0366483926773071,-0.166183352470398,0.443091728417067
3.524688755,-0.346847534179688,-0.02840256690979,-0.1590236723423,0.382620498848175
3.529688755,-0.298410415649414,-0.0398299694061279,-0.148448616266251,0.335666790586012
3.534688755,-0.214515686035156,-0.0449942350387573,-0.126845240592957,0.253241339048232
3.539688755,-0.295568466186523,-0.0348042249679565,-0.144469916820526,0.330822624899815
3.544688755,-0.48002815246582,0.00670182704925537,-0.143428206443787,0.50104250523207
3.549688755,-0.845822334289551,0.0519269704818726,-0.146047025918961,0.859907881825852
3.554688755,-1.29755115509033,0.110175013542175,-0.147775888442993,1.31057821090173
3.559688755,-1.70650291442871,0.171471953392029,-0.165431499481201,1.72305612467336
3.564688755,-1.9942798614502,0.225104928016663,-0.186458706855774,2.01558707174002
3.569688755,-2.22735500335693,0.262830018997192,-0.165654569864273,2.24891782117136
3.574688755,-2.36698913574219,0.295657515525818,-0.181492626667023,2.39227726418635
3.579688755,-2.37525749206543,0.302833914756775,-0.168615460395813,2.40041406991051
3.584688755,-2.21725177764893,0.294628739356995,-0.139172792434692,2.24106684543243
3.589688755,-2.08910274505615,0.280263304710388,-0.119479209184647,2.11120180958518
3.594688755,-2.14701080322266,0.298611164093018,-0.118695616722107,2.17092438051279
3.599688755,-2.24036598205566,0.331747770309448,-0.0989346206188202,2.26695486849971
3.604688755,-2.14345073699951,0.342318773269653,-0.0918969810009003,2.17255799913228
3.609688755,-1.94662857055664,0.332352042198181,-0.104643821716309,1.97756693972267
3.614688755,-1.74600124359131,0.296974062919617,-0.0851375758647919,1.77312220207563
3.619688755,-1.62140083312988,0.279490232467651,-0.0554597675800324,1.64624762339665
3.624688755,-1.38939094543457,0.252946019172668,-0.0350680947303772,1.4126636751679
3.629688755,-1.09730339050293,0.208897590637207,0.000313222408294678,1.11701075746455
3.634688755,-0.70529842376709,0.161050081253052,0.0125826895236969,0.723561551850018
3.639688755,-0.251052856445313,0.0964809656143189,0.0211195051670074,0.269781665340181
3.644688755,0.302142143249512,0.0214545726776123,0.0357865691184998,0.305009593202346
3.649688755,0.793756484985352,-0.0457919836044312,0.07014399766922,0.798164421424401
3.654688755,1.11763000488281,-0.0961573123931885,0.0917824953794479,1.12550747798454
3.659688755,1.38493919372559,-0.140291452407837,0.0838454365730286,1.39454950402275
3.664688755,1.66265106201172,-0.176008224487305,0.107060968875885,1.6753654825597
3.669688755,2.00638771057129,-0.236169695854187,0.111925601959229,2.02333761659919
3.674688755,2.32919645309448,-0.277595281600952,0.134187668561935,2.34951518145108
3.679688755,2.60145807266235,-0.302486658096314,0.16109262406826,2.6239346629967
3.684688755,2.84486198425293,-0.336131453514099,0.176086023449898,2.87005755188697
3.689688755,2.98927164077759,-0.373913884162903,0.182616427540779,3.01809630309152
3.694688755,3.15463066101074,-0.391387581825256,0.203777268528938,3.18534205726249
3.699688755,3.26395511627197,-0.412140011787415,0.233723893761635,3.29816452725894
3.704688755,3.3243522644043,-0.416002035140991,0.251960158348084,3.35974100080441
3.709688755,3.25261497497559,-0.412521004676819,0.257141292095184,3.28873826852113
3.714688755,3.08556318283081,-0.387068510055542,0.269364416599274,3.12139061567877
3.719688755,2.80545616149902,-0.35397469997406,0.257657825946808,2.83941365735713
3.724688755,2.497239112854,-0.307359337806702,0.24223355948925,2.52771636989747
3.729688755,2.1486701965332,-0.257378816604614,0.238326296210289,2.1771143498154
3.734688755,1.73344421386719,-0.211633801460266,0.200639471411705,1.75780371657319
3.739688755,1.29019451141357,-0.16285514831543,0.183876946568489,1.3133675830071
3.744688755,0.790457725524902,-0.0876630544662476,0.152053251862526,0.809708847896775
3.749688755,0.380255699157715,-0.0195798873901367,0.101582676172256,0.39407716101095
3.754688755,0.0263481140136719,0.0424189567565918,0.0612396895885468,0.0790182927257772
3.759688755,-0.282973289489746,0.0812885761260986,0.00720146298408508,0.294505647216428
3.764688755,-0.488852500915527,0.110880136489868,-0.012863427400589,0.501434582058186
3.769688755,-0.570329666137695,0.138631701469421,-0.0528698861598969,0.589313076039894
3.774688755,-0.539660453796387,0.166109085083008,-0.0599734485149384,0.567822549803731
3.779688755,-0.380439758300781,0.181260108947754,-0.0701628029346466,0.42721476531992
3.784688755,-0.078059196472168,0.149278402328491,-0.0477356314659119,0.175088463546508
3.789688755,0.296631813049316,0.104296207427979,-0.00776579976081848,0.31452891606768
3.794688755,0.650543212890625,0.0440053939819336,0.0481224954128265,0.653803274007036
3.799688755,0.989724159240723,-0.0262575149536133,0.103840231895447,0.995502969476433
3.804688755,1.33429336547852,-0.0949615240097046,0.159422188997269,1.34713470393532
3.809688755,1.67657089233398,-0.164928197860718,0.158975839614868,1.69214792055908
3.814688755,1.95886278152466,-0.227770566940308,0.162370443344116,1.97873368316168
3.819688755,2.19831371307373,-0.285474896430969,0.164937794208527,2.22289981185358
3.824688755,2.40702533721924,-0.322581052780151,0.161545470356941,2.43391175859376
3.829688755,2.53246402740479,-0.35352623462677,0.1442911028862,2.56108859101765
3.834688755,2.57864284515381,-0.36710524559021,0.164304435253143,2.60982013396453
3.839688755,2.50486040115356,-0.369234800338745,0.202731639146805,2.54003151251309
3.844688755,2.3794150352478,-0.351423859596252,0.202811121940613,2.41376199950195
3.849688755,2.24294567108154,-0.325269460678101,0.229804441332817,2.278028881891
3.854688755,2.09490823745728,-0.298513650894165,0.240095630288124,2.12964711509207
3.859688755,1.926673412323,-0.261315941810608,0.242650866508484,1.95939682101764
3.864688755,1.68583106994629,-0.236253380775452,0.222992807626724,1.71684823108431
3.869688755,1.38333892822266,-0.187512874603271,0.206446051597595,1.4111724347855
3.874688755,1.0093469619751,-0.141059756278992,0.178008168935776,1.03458496639847
3.879688755,0.647863388061523,-0.113240003585815,0.170916154980659,0.679531161931552
3.884688755,0.328068733215332,-0.0768617391586304,0.144236624240875,0.366525612246137
3.889688755,0.0482282638549805,-0.0614725351333618,0.141956940293312,0.162038917879709
3.894688755,-0.223265647888184,-0.00711405277252197,0.142243131995201,0.264823087878653
3.899688755,-0.518108367919922,0.0164593458175659,0.120844155550003,0.532269199657449
3.904688755,-0.782388687133789,0.0502527952194214,0.0915970206260681,0.789333526064788
3.909688755,-0.999340057373047,0.0929144620895386,0.0861453115940094,1.00734039045666
3.914688755,-1.18432426452637,0.117494702339172,0.0619390904903412,1.19174889114883
3.919688755,-1.31511211395264,0.130702257156372,0.027596116065979,1.32187915405027
3.924688755,-1.39995288848877,0.141974925994873,0.0394760966300964,1.40768722797518
3.929688755,-1.44183158874512,0.151383519172668,0.0316658616065979,1.45010276427971
3.934688755,-1.43811321258545,0.166677594184876,0.00210753083229065,1.4477415081092
3.939688755,-1.38561725616455,0.148416757583618,-0.0171875953674316,1.39364921265975
3.944688755,-1.2998514175415,0.151800394058228,-0.0301284790039063,1.3090320059372
3.949688755,-1.18995571136475,0.138319492340088,-0.0428925752639771,1.1987354378609
3.954688755,-1.07428646087646,0.121684432029724,-0.0573611259460449,1.08267668294402
3.959688755,-1.00437927246094,0.121570825576782,-0.0689315497875214,1.01405559371106
3.964688755,-0.993764877319336,0.128621339797974,-0.0723861753940582,1.0046650381262
3.969688755,-0.938058853149414,0.108264803886414,-0.0827468037605286,0.94790437981114
3.974688755,-0.842155456542969,0.0934641361236572,-0.11798083782196,0.855500342384274
3.979688755,-1.26192188262939,0.116295576095581,-0.160905629396439,1.27744358797161
3.984688755,-1.34327793121338,0.13978123664856,-0.190699875354767,1.36392845745817
3.989688755,-1.39775657653809,0.118533372879028,-0.228449463844299,1.42125394116333
3.994688755,-1.53396224975586,0.12896466255188,-0.284300476312637,1.5654069211214
3.999688755,-1.94398975372314,0.163139581680298,-0.339937657117844,1.98021925463272
4.004688755,-2.0596170425415,0.172085165977478,-0.381316930055618,2.1016751098645
4.009688755,-1.90109539031982,0.154390335083008,-0.431079655885696,1.95546151288663
4.014688755,-1.69735622406006,0.169743180274963,-0.445290982723236,1.76298467318916
4.019688755,-1.55834197998047,0.145112991333008,-0.459291577339172,1.63108438158109
4.024688755,-1.29383087158203,0.149792194366455,-0.436929434537888,1.37380615682033
4.029688755,-0.769196510314941,0.0873730182647705,-0.376494884490967,0.860840120956991
4.034688755,-0.288863182067871,0.0204027891159058,-0.287041932344437,0.407739233680195
4.039688755,0.00897026062011719,-0.0316747426986694,-0.198962897062302,0.201668017563628
4.044688755,0.311503410339355,-0.0559841394424439,-0.106024265289307,0.333780981112311
4.049688755,0.821545600891113,-0.140012979507446,-0.0320273637771606,0.834006331393598
4.054688755,1.14598369598389,-0.178113460540771,0.00632989406585693,1.15975993371283
4.059688755,1.24360466003418,-0.192570686340332,0.0371580421924591,1.25897447940611
4.064688755,1.29793739318848,-0.180814385414124,0.0739032328128815,1.31255362040177
4.069688755,1.33511543273926,-0.203454613685608,0.0691487789154053,1.35229750875833
4.074688755,1.23128032684326,-0.213793039321899,0.0656579732894898,1.25142705596061
4.079688755,1.04416942596436,-0.191127181053162,0.0673925876617432,1.06365461984979
4.084688755,0.844649314880371,-0.163701295852661,0.0488539636135101,0.861752452362319
4.089688755,0.713085174560547,-0.135570883750916,0.0132628679275513,0.725979224471826
4.094688755,0.620903968811035,-0.131444334983826,-0.0202842354774475,0.6349888202902
4.099688755,0.553955078125,-0.0945988893508911,-0.0323817729949951,0.562906526582519
4.104688755,0.499237060546875,-0.0894689559936523,-0.0712433755397797,0.512169850018898
4.109688755,0.478579521179199,-0.0656851530075073,-0.09547159075737,0.49241011571603
4.114688755,0.501982688903809,-0.0506808757781982,-0.128237336874008,0.520576589655433
4.119688755,0.561575889587402,-0.0524865388870239,-0.141835331916809,0.581583680918037
4.124688755,0.696197509765625,-0.0599784851074219,-0.159673422574997,0.716787271899029
4.129688755,0.794564247131348,-0.0523537397384644,-0.154308795928955,0.811100771411945
4.134688755,0.806268692016602,-0.057608962059021,-0.113939374685287,0.816314998845025
4.139688755,0.82433032989502,-0.0602588653564453,-0.114586710929871,0.834434981266128
4.144688755,0.872736930847168,-0.0684869289398193,-0.10940757393837,0.882230257435791
4.149688755,0.910239219665527,-0.0898362398147583,-0.0854683816432953,0.918646194822624
4.154688755,0.816147804260254,-0.0785975456237793,-0.10363382101059,0.826447083263152
4.159688755,0.715764999389648,-0.0792142152786255,-0.0932611525058746,0.726148792480023
4.164688755,0.632138252258301,-0.0803518295288086,-0.10477215051651,0.645780450308509
4.169688755,0.63997745513916,-0.0941344499588013,-0.105787485837936,0.655456657541407
4.174688755,0.61345386505127,-0.0879114866256714,-0.107179701328278,0.628920950838733
4.179688755,0.531571388244629,-0.0804526805877686,-0.113539725542068,0.549483433681351
4.184688755,0.495122909545898,-0.0716254711151123,-0.0961907505989075,0.509440442221109
4.189688755,0.521944999694824,-0.079731822013855,-0.102870136499405,0.537927514755925
4.194688755,0.521626472473145,-0.0882318019866943,-0.0998575985431671,0.538377718384968
4.199688755,0.492195129394531,-0.0848673582077026,-0.096060037612915,0.508611880233886
4.204688755,0.430683135986328,-0.0781903266906738,-0.0929934084415436,0.447492418734204
4.209688755,0.322522163391113,-0.048667311668396,-0.0881063938140869,0.337863566746158
4.214688755,0.192423820495605,-0.0352227687835693,-0.102486163377762,0.220841535538039
4.219688755,0.0298023223876953,-0.0272794961929321,-0.114319682121277,0.121249078563716
4.224688755,-0.192126274108887,0.00626468658447266,-0.12198331952095,0.227665723687856
4.229688755,-0.427996635437012,0.0388644933700562,-0.124244630336761,0.44735701286314
4.234688755,-0.648012161254883,0.0749552249908447,-0.13102588057518,0.665361426796109
4.239688755,-0.864176750183106,0.104972124099731,-0.111109346151352,0.877590957791398
4.244688755,-0.99820613861084,0.120279908180237,-0.127540528774261,1.01348376304321
4.249688755,-1.11332035064697,0.152701616287231,-0.108748972415924,1.12899350121378
4.254688755,-1.18655014038086,0.177850246429443,-0.0902034640312195,1.20319101173342
4.259688755,-1.15913105010986,0.183008551597595,-0.0724916160106659,1.17572613974449
4.264688755,-1.09098625183105,0.173571348190308,-0.0397463738918304,1.10542199581631
4.269688755,-0.982715606689453,0.173533916473389,-0.00812861323356628,0.997952933835416
4.274688755,-0.889560699462891,0.161234736442566,0.0255506038665772,0.904415674135824
4.279688755,-0.677289009094238,0.132795214653015,0.0500744879245758,0.691998862148995
4.284688755,-0.450347900390625,0.095689058303833,0.0753730535507202,0.466530518258858
4.289688755,-0.221023559570313,0.0572390556335449,0.107616990804672,0.252406695800259
4.294688755,-0.0349626541137695,0.0361133813858032,0.121120750904083,0.131136569260312
4.299688755,0.168607711791992,0.00514638423919678,0.141604661941528,0.220242879635287
4.304688755,0.327485084533691,-0.0150902271270752,0.16833159327507,0.368523704585349
4.309688755,0.527766227722168,-0.0397520065307617,0.161318764090538,0.553300241094297
4.314688755,0.664159774780273,-0.0655744075775147,0.17213748395443,0.689231109822741
4.319688755,0.771821022033691,-0.0724107027053833,0.189696535468102,0.798082561824289
4.324688755,0.843630790710449,-0.0746531486511231,0.177962929010391,0.865422906872832
4.329688755,0.905247688293457,-0.0902085304260254,0.200126528739929,0.931483539107249
4.334688755,0.896313667297363,-0.0805796384811401,0.173226282000542,0.916448914614192
4.339688755,0.852287292480469,-0.0707111358642578,0.167275935411453,0.871421214010009
4.344688755,0.773350715637207,-0.0687083005905151,0.161592185497284,0.793034800220271
4.349688755,0.713911056518555,-0.0458475351333618,0.142300575971603,0.729397317666506
4.354688755,0.653942108154297,-0.0336431264877319,0.136704862117767,0.668924779107332
4.359688755,0.575138092041016,-0.018246054649353,0.136076897382736,0.591298288030803
4.364688755,0.474493980407715,-0.00933694839477539,0.124657571315765,0.490684446599674
4.369688755,0.369516372680664,-0.00117731094360352,0.109466329216957,0.385391506097849
4.374688755,0.292910575866699,0.00872540473937988,0.126645788550377,0.319236423203829
4.379688755,0.259708404541016,0.00644612312316895,0.129258245229721,0.290168402574136
4.384688755,0.201038360595703,0.00980579853057861,0.137839749455452,0.24395157848592
4.389688755,0.123522758483887,0.0215675830841064,0.140597522258759,0.188389744330366
4.394688755,0.109004020690918,0.0363782644271851,0.120928078889847,0.166819827698956
4.399688755,0.121131896972656,0.0318565368652344,0.12328614294529,0.175747684046097
4.404688755,0.109392166137695,0.0264161825180054,0.15010179579258,0.187603331023943
4.409688755,0.0718450546264648,0.0282373428344727,0.142477706074715,0.162046154329389
4.414688755,-0.0123443603515625,0.0423343181610107,0.145299598574638,0.151843837782763
4.419688755,-0.0894174575805664,0.0364704132080078,0.15998275578022,0.18686908494122
4.424688755,-0.148706436157227,0.0652196407318115,0.16279624402523,0.229934387946849
4.429688755,-0.179100036621094,0.0620958805084229,0.160448491573334,0.248347417828234
4.434688755,-0.199790000915527,0.0604469776153564,0.164874106645584,0.265995023658032
4.439688755,-0.233100891113281,0.0777865648269653,0.159030199050903,0.292706985423231
4.444688755,-0.273886680603027,0.087523341178894,0.150273784995079,0.324432519207938
4.449688755,-0.31389045715332,0.101502060890198,0.136361330747604,0.356965404458381
4.454688755,-0.298515319824219,0.0951120853424072,0.16099351644516,0.352245109668417
4.459688755,-0.239768028259277,0.0929083824157715,0.162708774209023,0.304293969876269
4.464688755,-0.198161125183105,0.0952482223510742,0.163645148277283,0.274079897018311
4.469688755,-0.133667945861816,0.0834509134292603,0.166934430599213,0.229561056851067
4.474688755,-0.0349712371826172,0.0743308067321777,0.157356813549995,0.177508374535252
4.479688755,0.0231075286865234,0.0565439462661743,0.163661107420921,0.174688676861418
4.484688755,0.117172241210938,0.0468475818634033,0.135789141058922,0.185371844858819
4.489688755,0.165366172790527,0.0326772928237915,0.119122847914696,0.206407435585509
4.494688755,0.228102684020996,0.0165399312973022,0.115342050790787,0.256140962100025
4.499688755,0.281510353088379,0.00502336025238037,0.108858123421669,0.301866533552589
4.504688755,0.300930023193359,0.0111808776855469,0.0984452664852142,0.316820708569247
4.509688755,0.292309761047363,0.0059131383895874,0.0773747265338898,0.30243480275156
4.514688755,0.240970611572266,-0.0108658075332642,0.0621877014636993,0.249102813368697
4.519688755,0.209621429443359,-0.00316858291625977,0.0501801371574402,0.215567227946908
4.524688755,0.189064025878906,-0.0169976949691772,0.0296652913093567,0.192130572851574
4.529688755,0.15561580657959,-0.0107156038284302,0.0318604409694672,0.159204871538509
4.534688755,0.109308242797852,-0.0218510627746582,0.0160277187824249,0.112617266248585
4.539688755,0.0521926879882813,-0.00896859169006348,0.0167845785617828,0.0555538872973063
4.544688755,0.0492982864379883,-0.0123536586761475,0.0267946124076843,0.0574533304734088
4.549688755,0.049534797668457,-0.00935614109039307,0.0177527070045471,0.0534452258124859
4.554688755,0.0599546432495117,-0.0159027576446533,0.0133589506149292,0.0634501261575808
4.559688755,0.0700082778930664,-0.0101379156112671,0.0214168429374695,0.0739095221734129
4.564688755,0.0461244583129883,-0.0123666524887085,0.0233249366283417,0.0531455775879727
4.569688755,0.0339365005493164,-0.0101265907287598,0.0114351212978363,0.0372155331604666
4.574688755,0.0346317291259766,-0.0173006057739258,0.0132967829704285,0.0409325305809754
4.579688755,0.0208034515380859,-0.00724923610687256,0.000310987234115601,0.0220325153600413
4.584688755,-0.00381374359130859,-0.00582540035247803,0.00953105092048645,0.0118034258203203
4.589688755,-0.0170078277587891,-0.00482332706451416,-0.0040174126625061,0.018129266216391
4.594688755,-0.0383033752441406,0.0134079456329346,0.0200354754924774,0.0452586106658041
4.599688755,-0.0676698684692383,0.0126680135726929,-0.0029350221157074,0.0689079387396085
4.604688755,-0.0646429061889648,0.00585567951202393,0.00439199805259705,0.0650560062561241
4.609688755,-0.0358047485351563,0.0054619312286377,-0.00049889087677002,0.036222390900092
4.614688755,0.001678466796875,0.00295770168304443,-0.000983238220214844,0.00354005754639483
4.619688755,0.0158720016479492,0.00146305561065674,-0.00541883707046509,0.0168352238841253
4.624688755,0.0679769515991211,0.0189226865768433,0.0147609114646912,0.0720889625619841
4.629688755,0.111823081970215,-0.00104856491088867,0.00257584452629089,0.111857660107448
4.634688755,0.153434753417969,-0.000492095947265625,0.00200983881950378,0.15344870532831
4.639688755,0.190648078918457,-0.0057528018951416,0.00932127237319946,0.190962485435225
4.644688755,0.224493026733398,-0.0137060880661011,0.00388753414154053,0.224944635018708
4.649688755,0.243940353393555,-0.0183513164520264,0.00401917099952698,0.244662666879968
4.654688755,0.263081550598145,-0.019255518913269,-0.00839155912399292,0.263918729040352
4.659688755,0.277467727661133,-0.0180157423019409,-0.0188185572624207,0.278688078255173
4.664688755,0.27752685546875,-0.0320816040039063,-0.024789959192276,0.280472684763758
4.669688755,0.239620208740234,-0.0350998640060425,-0.0312279164791107,0.244182365574549
4.674688755,0.202184677124023,-0.0341169834136963,-0.047406941652298,0.210451966818608
4.679688755,0.207625389099121,-0.0169070959091187,-0.0432325601577759,0.212751513151933
4.684688755,0.242334365844727,-0.0405648946762085,-0.0480282604694366,0.25035608511314
4.689688755,0.224428176879883,-0.0263804197311401,-0.0629452168941498,0.234576284932366
4.694688755,0.188837051391602,-0.0256149768829346,-0.0713224709033966,0.203475929472637
4.699688755,0.18671703338623,-0.0383288860321045,-0.0844177305698395,0.208467520960889
4.704688755,0.206737518310547,-0.03632652759552,-0.076711505651474,0.223483048985081
4.709688755,0.225048065185547,-0.0474169254302979,-0.0941126346588135,0.248499868135667
4.714688755,0.240067481994629,-0.0517535209655762,-0.0981881022453308,0.264483886590687
4.719688755,0.250492095947266,-0.0488483905792236,-0.0861736834049225,0.26936658869616
4.724688755,0.267105102539063,-0.0490113496780396,-0.0893588364124298,0.285888526955262
4.729688755,0.31069278717041,-0.0671017169952393,-0.0933147370815277,0.331270717963453
4.734688755,0.353194236755371,-0.0642529726028442,-0.0941475033760071,0.371131197499545
4.739688755,0.403501510620117,-0.0758287906646729,-0.0907135307788849,0.420466906227773
4.744688755,0.389720916748047,-0.0720006227493286,-0.0721980333328247,0.402838725353406
4.749688755,0.339137077331543,-0.0763643980026245,-0.0747358500957489,0.355571266826804
4.754688755,0.279508590698242,-0.0676789283752441,-0.0821447372436523,0.299087357601366
4.759688755,0.211621284484863,-0.0637598037719727,-0.0872264802455902,0.237607532456566
4.764688755,0.123813629150391,-0.0463840961456299,-0.075728714466095,0.152368426300611
4.769688755,0.0175037384033203,-0.0202233791351318,-0.0953135788440704,0.0989951727802926
4.774688755,-0.126425743103027,0.00598418712615967,-0.133662402629852,0.184078561737912
4.779688755,-0.242329597473145,0.0198161602020264,-0.132847756147385,0.277064686183649
4.784688755,-0.347743034362793,0.0399856567382813,-0.134948432445526,0.375146838067628
4.789688755,-0.410709381103516,0.0567131042480469,-0.140079736709595,0.437631014162059
4.794688755,-0.42796516418457,0.0621325969696045,-0.141819328069687,0.455112473105112
4.799688755,-0.389970779418945,0.0609091520309448,-0.141508907079697,0.419299301674399
4.804688755,-0.319827079772949,0.051116943359375,-0.106024235486984,0.340798241434866
4.809688755,-0.181072235107422,0.0511116981506348,-0.110794514417648,0.218346019976737
4.814688755,-0.0436840057373047,0.0250358581542969,-0.0784771144390106,0.0932402490422055
4.819688755,0.0888757705688477,0.0264180898666382,-0.0471730530261993,0.104029394875779
4.824688755,0.178459167480469,0.020628809928894,-0.0332728624343872,0.182702779484829
4.829688755,0.218302726745605,0.00273752212524414,0.0048753023147583,0.218374318784542
4.834688755,0.212993621826172,0.00195884704589844,0.0145500898361206,0.213499004996789
4.839688755,0.172371864318848,-0.00279629230499268,0.0203978419303894,0.173597093336344
4.844688755,0.120185852050781,-0.0101032257080078,0.0137460827827454,0.121390563862062
4.849688755,0.027989387512207,0.0123969316482544,0.00626868009567261,0.0312471771163711
4.854688755,-0.0761194229125977,0.0234365463256836,0.00711429119110107,0.0799628125279157
4.859688755,-0.181650161743164,0.0255903005599976,-0.00520271062850952,0.183517609351127
4.864688755,-0.241223335266113,0.0373984575271606,-0.014630526304245,0.244543236263565
4.869688755,-0.285547256469727,0.0468590259552002,-0.0124012529850006,0.289632172015569
4.874688755,-0.289073944091797,0.0590441226959229,-0.00799080729484558,0.295150481244639
4.879688755,-0.273027420043945,0.0576597452163696,0.0045323371887207,0.279086295605252
4.884688755,-0.220395088195801,0.0586731433868408,0.016796201467514,0.228688970087027
4.889688755,-0.142477989196777,0.0577669143676758,0.00950190424919128,0.154036618975749
4.894688755,-0.026423454284668,0.0590099096298218,0.0220414400100708,0.0683095414167832
4.899688755,0.0411157608032227,0.0270578861236572,0.00801146030426025,0.0498680106292136
4.904688755,0.0866012573242188,0.0286848545074463,0.0200192332267761,0.0933989740159761
4.909688755,0.10305118560791,0.0337800979614258,0.0192660391330719,0.110144551101525
4.914688755,0.127830505371094,0.0196267366409302,0.0203272998332977,0.130916179340502
4.919688755,0.169551849365234,0.0160783529281616,0.0385388433933258,0.174618399678124
4.924688755,0.200556755065918,0.023878812789917,0.0300578773021698,0.204197663284228
4.929688755,0.219845771789551,0.0177812576293945,0.0171424746513367,0.221228842906611
4.934688755,0.221057891845703,0.00672948360443115,0.0220693349838257,0.222258707463796
4.939688755,0.249078750610352,-0.000421404838562012,0.0152061581611633,0.249542839676225
4.944688755,0.276301383972168,-0.00925445556640625,0.0274909734725952,0.277819821746464
4.949688755,0.330101013183594,-0.00632941722869873,0.0381576120853424,0.33235935940988
4.954688755,0.365650177001953,-0.00384140014648438,0.0228784680366516,0.366385360783355
4.959688755,0.389778137207031,-0.00894784927368164,0.044270247220993,0.392386181000575
4.964688755,0.43695068359375,-0.0182875394821167,0.0524862110614777,0.440471493226231
4.969688755,0.482211112976074,-0.0193866491317749,0.0563538074493408,0.485879770371457
4.974688755,0.529248237609863,-0.0225694179534912,0.0708667933940888,0.534448480254052
4.979688755,0.572519302368164,-0.0296976566314697,0.0727005898952484,0.57788033204518
4.984688755,0.574192047119141,-0.035673975944519,0.0940866768360138,0.582942057405883
4.989688755,0.556149482727051,-0.0389391183853149,0.101887688040733,0.566744742412735
4.994688755,0.53734016418457,-0.0348900556564331,0.0867525190114975,0.54541522492909
4.999688755,0.535625457763672,-0.0477650165557861,0.0884914398193359,0.544983360050944
5.004688755,0.524689674377441,-0.0422770977020264,0.0981092154979706,0.535454970612879
5.009688755,0.496700286865234,-0.0366660356521606,0.0883288234472275,0.505823639417953
5.014688755,0.442329406738281,-0.0216399431228638,0.0900323688983917,0.451917490979556
5.019688755,0.386418342590332,-0.0187921524047852,0.0772378891706467,0.394509786958196
5.024688755,0.355642318725586,-0.0230652093887329,0.0770739316940308,0.364628377529003
5.029688755,0.319847106933594,-0.0134357213973999,0.0759837627410889,0.329023133872912
5.034688755,0.271489143371582,-0.0080333948135376,0.0700130015611649,0.280486560798319
5.039688755,0.19974422454834,0.000330328941345215,0.0747988969087601,0.213290270140001
5.044688755,0.0974187850952148,0.000746726989746094,0.0568616092205048,0.112801683913718
5.049688755,0.0236577987670898,0.0123597383499146,0.06063312292099,0.0662482465408281
5.054688755,-0.0538949966430664,0.0188791751861572,0.0529851615428925,0.0779007141340319
5.059688755,-0.106814384460449,0.0401489734649658,0.035198986530304,0.119416169134317
5.064688755,-0.227293968200684,0.0814831256866455,0.0451356470584869,0.245640538974061
5.069688755,-0.26301097869873,0.127116084098816,0.0649412572383881,0.299250130567029
5.074688755,-0.248048782348633,0.177231192588806,0.0758389234542847,0.31415065870024
5.079688755,-0.232447624206543,0.209143757820129,0.0745740383863449,0.321456523709878
5.084688755,-0.277261734008789,0.232186079025269,0.0539886951446533,0.365649044360998
5.089688755,-0.335503578186035,0.258604049682617,0.0956606268882752,0.434269111294529
5.094688755,-0.350979804992676,0.293461680412293,0.114028230309486,0.471496573360418
5.099688755,-0.390649795532227,0.302837371826172,0.0769916623830795,0.500245392383042
5.104688755,-0.490751266479492,0.30974018573761,0.0904127508401871,0.587324657856695
5.109688755,-0.583725929260254,0.317475318908691,0.0870879292488098,0.670157329309893
5.114688755,-0.676613807678223,0.308663487434387,0.0789304077625275,0.747869910135138
5.119688755,-0.73063850402832,0.290352940559387,0.0674556642770767,0.78910564584426
5.124688755,-0.779340744018555,0.307700037956238,0.045230969786644,0.839104969162682
5.129688755,-0.814332962036133,0.290033221244812,0.012795478105545,0.864535231638441
5.134688755,-0.845704078674316,0.288522720336914,0.0145388245582581,0.893684578728157
5.139688755,-0.814324378967285,0.272272109985352,-0.0177736580371857,0.858820236706351
5.144688755,-0.739021301269531,0.251382231712341,-0.0330542922019959,0.781305379722784
5.149688755,-0.634498596191406,0.236814856529236,-0.00887849926948547,0.67730980547391
5.154688755,-0.505881309509277,0.20209801197052,-0.0171138942241669,0.545025128896617
5.159688755,-0.39020824432373,0.173560500144959,-0.00845324993133545,0.427150065648102
5.164688755,-0.261190414428711,0.143704056739807,-0.0143264383077621,0.298456923772101
5.169688755,-0.126871109008789,0.124231219291687,0.0169990956783295,0.178377810844567
5.174688755,-0.0164470672607422,0.0914144515991211,0.0437350869178772,0.10266384860486
5.179688755,0.0902309417724609,0.0812422037124634,0.0220405906438828,0.12340059219118
5.184688755,0.158068656921387,0.0593881607055664,0.0536429584026337,0.177172856044903
5.189688755,0.186428070068359,0.0561654567718506,0.052011102437973,0.201531979151243
5.194688755,0.216443061828613,0.0234512090682983,0.0511796325445175,0.223644613187758
5.199688755,0.28179931640625,0.0218937397003174,0.0398914813995361,0.285449681823863
5.204688755,0.364720344543457,0.0020061731338501,0.0287391841411591,0.365856385976301
5.209688755,0.46610164642334,-0.0215916633605957,0.0109109878540039,0.466729037430901
5.214688755,0.548249244689941,-0.0590065717697144,0.0429680645465851,0.553087031475143
5.219688755,0.663593292236328,-0.0897270441055298,0.0281438529491425,0.670223154183581
5.224688755,0.804679870605469,-0.122822999954224,0.00867241621017456,0.814045695448549
5.229688755,0.922141075134277,-0.147021770477295,-0.00202634930610657,0.933789949365268
5.234688755,0.988689422607422,-0.15931510925293,-0.0369167327880859,1.00212320778027
5.239688755,1.03777313232422,-0.157676935195923,-0.0711143016815186,1.05208950853549
5.244688755,1.00734615325928,-0.15731942653656,-0.0895782113075256,1.02348421111081
5.249688755,0.904255867004395,-0.13729989528656,-0.129114955663681,0.923688587151321
5.254688755,0.813459396362305,-0.156571865081787,-0.160285502672195,0.843754929367641
5.259688755,0.68461799621582,-0.165622115135193,-0.142887949943542,0.718713748305602
5.264688755,0.504193305969238,-0.15984845161438,-0.11383643746376,0.541037107564856
5.269688755,0.374092102050781,-0.172880172729492,-0.133196979761124,0.433098014723268
5.274688755,0.267000198364258,-0.156561613082886,-0.134396463632584,0.337435999938674
5.279688755,0.0509777069091797,-0.138339996337891,-0.11395725607872,0.186340917142416
5.284688755,-0.205722808837891,-0.12789523601532,-0.112809747457504,0.267217335876607
5.289688755,-0.361722946166992,-0.120703816413879,-0.112530827522278,0.397587837117099
5.294688755,-0.402973175048828,-0.141047358512878,-0.110410332679749,0.440989998429496
5.299688755,-0.394241333007813,-0.156800985336304,-0.118685096502304,0.440566600851646
5.304688755,-0.369452476501465,-0.155221939086914,-0.1169313788414,0.417446918930681
5.309688755,-0.331164360046387,-0.184546232223511,-0.137688606977463,0.403342655423675
5.314688755,-0.288576126098633,-0.182377457618713,-0.155394583940506,0.375080250505945
5.319688755,-0.273293495178223,-0.194384217262268,-0.14615061879158,0.365834063204283
5.324688755,-0.236433982849121,-0.233786106109619,-0.156502425670624,0.367491470508617
5.329688755,-0.158795356750488,-0.238596320152283,-0.185716360807419,0.341518280604826
5.334688755,-0.117083549499512,-0.259765148162842,-0.218949347734451,0.359340098843435
5.339688755,-0.0772151947021484,-0.263818502426147,-0.214191973209381,0.348483270620835
5.344688755,-0.0733327865600586,-0.266862511634827,-0.233497262001038,0.362097043708855
5.349688755,-0.0693559646606445,-0.282842636108398,-0.252062767744064,0.385156910255489
5.354688755,-0.0821428298950195,-0.293523073196411,-0.287458449602127,0.41896968774541
5.359688755,-0.0378875732421875,-0.305915594100952,-0.289189010858536,0.42267020585991
5.364688755,0.00687503814697266,-0.324056744575501,-0.305651932954788,0.445514471115577
5.369688755,0.0769920349121094,-0.362263083457947,-0.315504312515259,0.486523674955385
5.374688755,0.144452095031738,-0.380136132240295,-0.328001827001572,0.522451036279993
5.379688755,0.138976097106934,-0.397161960601807,-0.324224025011063,0.531199771188318
5.384688755,0.172472953796387,-0.401079535484314,-0.345751315355301,0.556916228570765
5.389688755,0.209772109985352,-0.399515151977539,-0.339579641819,0.564739787800774
5.394688755,0.194907188415527,-0.398944020271301,-0.325388669967651,0.550475185589316
5.399688755,0.180798530578613,-0.408654570579529,-0.323562771081924,0.551706020943345
5.404688755,0.16815185546875,-0.406397938728333,-0.311394453048706,0.538888519537876
5.409688755,0.13682746887207,-0.395854353904724,-0.290819883346558,0.509900608249264
5.414688755,0.105433464050293,-0.375407338142395,-0.270686864852905,0.474677009846377
5.419688755,0.0521106719970703,-0.363930702209473,-0.256673157215118,0.448377282856127
5.424688755,0.0354022979736328,-0.342608451843262,-0.222590506076813,0.410098046047262
5.429688755,0.0981826782226563,-0.345035195350647,-0.197062164545059,0.409295273645832
5.434688755,0.191387176513672,-0.355067133903503,-0.153304308652878,0.431513536246386
5.439688755,0.201007843017578,-0.356786489486694,-0.0919857919216156,0.419716735370732
5.444688755,0.145137786865234,-0.307269930839539,-0.0475514531135559,0.343133980053687
5.449688755,0.103076934814453,-0.253638029098511,-0.00939589738845825,0.273944131500301
5.454688755,-0.0282535552978516,-0.227217793464661,0.0118732154369354,0.229275298056136
5.459688755,-0.168089866638184,-0.184088587760925,0.0645659565925598,0.257510337969113
5.464688755,-0.156865119934082,-0.12801456451416,0.130884170532227,0.241091394860109
5.469688755,-0.235758781433105,-0.0840314626693726,0.171148240566254,0.303208195783196
5.474688755,-0.245036125183105,-0.0690476894378662,0.16732582449913,0.304644411742235
5.479688755,-0.302230834960938,-0.0177721977233887,0.160507380962372,0.342668860500199
5.484688755,-0.273751258850098,-0.0313986539840698,0.172176882624626,0.32491615242145
5.489688755,-0.126169204711914,-0.0316280126571655,0.154160276055336,0.201703718646276
5.494688755,-0.0813922882080078,-0.0456181764602661,0.10597737133503,0.141198179302632
5.499688755,-0.0266246795654297,-0.0399327278137207,0.0762990713119507,0.090139029258544
5.504688755,0.0663518905639648,-0.0660910606384277,0.0632012337446213,0.112982288986225
5.509688755,0.131191253662109,-0.0732158422470093,0.0462049841880798,0.157183348854755
5.514688755,0.188343048095703,-0.0869241952896118,0.0603484213352203,0.216034375621983
5.519688755,0.230135917663574,-0.0831601619720459,0.0501527041196823,0.249786802831112
5.524688755,0.268954277038574,-0.0676047801971436,0.0566568225622177,0.283049121153366
5.529688755,0.275778770446777,-0.0713772773742676,0.0500479638576508,0.289229052207409
5.534688755,0.224137306213379,-0.0535285472869873,0.0358581244945526,0.23321372709065
5.539688755,0.167222023010254,-0.0346370935440064,0.0569673776626587,0.180022818960759
5.544688755,0.157950401306152,-0.010063648223877,0.106928706169128,0.191006163490481
5.549688755,0.192318916320801,0.0027773380279541,0.149393558502197,0.243542017942034
5.554688755,0.223905563354492,0.014234185218811,0.197955548763275,0.299203463576385
5.559688755,0.206439018249512,0.0311154127120972,0.228483080863953,0.309499200976594
5.564688755,0.185975074768066,0.0532764196395874,0.285749495029449,0.345076628061343
5.569688755,0.154659271240234,0.0664217472076416,0.297685325145721,0.341976448735567
5.574688755,0.139430999755859,0.0912613868713379,0.274349987506866,0.32099464181138
5.579688755,0.113805770874023,0.0968345403671265,0.279304713010788,0.316764588302389
5.584688755,0.0850763320922852,0.0885143280029297,0.301999688148499,0.326000889854426
5.589688755,0.0367250442504883,0.0962060689926148,0.316314816474915,0.332655076179172
5.594688755,-0.0145845413208008,0.107935190200806,0.34503298997879,0.361815530765232
5.599688755,-0.0975227355957031,0.121194005012512,0.372090965509415,0.403299339725186
5.604688755,-0.146629333496094,0.119897961616516,0.380426913499832,0.424970962721352
5.609688755,-0.192783355712891,0.127550721168518,0.382709503173828,0.447103089376589
5.614688755,-0.209332466125488,0.147958517074585,0.371166497468948,0.451083554336063
5.619688755,-0.223562240600586,0.220209002494812,0.337249994277954,0.460662174312798
5.624688755,-0.270197868347168,0.268229246139526,0.320376485586166,0.497589096605297
5.629688755,-0.0273914337158203,0.33433997631073,0.283107817173004,0.438957340233571
5.634688755,-0.0133371353149414,0.360474705696106,0.244495093822479,0.435772582350435
5.639688755,-0.159494400024414,0.382928967475891,0.209795966744423,0.464852025308621
5.644688755,-0.246393203735352,0.409292221069336,0.192722275853157,0.515142318864274
5.649688755,-0.230517387390137,0.439417362213135,0.169319450855255,0.524304263325646
5.654688755,-0.189408302307129,0.442944765090942,0.17242768406868,0.511670671562898
5.659688755,-0.128848075866699,0.451813817024231,0.141409292817116,0.490646654939777
5.664688755,-0.09130859375,0.451403975486755,0.152277886867523,0.48506841085221
5.669688755,-0.0170793533325195,0.437693238258362,0.178110912442207,0.472853647821759
5.674688755,0.0386934280395508,0.440888643264771,0.18799901008606,0.480857156468156
5.679688755,0.0581331253051758,0.446059703826904,0.178532183170319,0.483965350064912
5.684688755,0.0465087890625,0.444016218185425,0.190639972686768,0.485445227247893
5.689688755,0.00990867614746094,0.406731247901917,0.209005862474442,0.457396917820322
5.694688755,-0.0228471755981445,0.385966777801514,0.225589901208878,0.447641765842651
5.699688755,-0.0485019683837891,0.367743015289307,0.236265152692795,0.439782433264589
5.704688755,-0.0486602783203125,0.344416260719299,0.225886568427086,0.414747061628939
5.709688755,-0.0442895889282227,0.329488396644592,0.190934300422668,0.383379809443258
5.714688755,0.00332450866699219,0.301039814949036,0.168826311826706,0.345164230631499
5.719688755,0.0490207672119141,0.289363503456116,0.14992019534111,0.329560825526273
5.724688755,0.0396947860717773,0.285592794418335,0.128907784819603,0.315841949797766
5.729688755,-0.0299701690673828,0.281164288520813,0.103214681148529,0.30100637630777
5.734688755,-0.108379364013672,0.279940009117126,0.0926624238491058,0.314163683518793
5.739688755,-0.196276664733887,0.288021206855774,0.07259202003479,0.356020148433268
5.744688755,-0.284961700439453,0.290865421295166,0.042061984539032,0.409359346498795
5.749688755,-0.35181713104248,0.286785483360291,0.0196270942687988,0.454319744222716
5.754688755,-0.430809020996094,0.299226045608521,-0.00774502754211426,0.524588052088258
5.759688755,-0.482653617858887,0.300294756889343,-0.0273029208183289,0.569101840914888
5.764688755,-0.46949577331543,0.276639938354492,-0.0524721741676331,0.547457090296316
5.769688755,-0.450789451599121,0.248883485794067,-0.0665305852890015,0.519211361540692
5.774688755,-0.35026741027832,0.235946655273438,-0.0507109463214874,0.425358299454265
5.779688755,-0.286941528320313,0.204690456390381,-0.0407937169075012,0.354820730723599
5.784688755,-0.179788589477539,0.175063848495483,-0.0278482437133789,0.252481311455506
5.789688755,-0.0658788681030273,0.142244219779968,-0.0214422643184662,0.158218880107435
5.794688755,0.0422878265380859,0.121334791183472,-0.00858819484710693,0.128779458437997
5.799688755,0.106078147888184,0.105855584144592,0.0201868116855621,0.15121337745057
5.804688755,0.145567893981934,0.067577600479126,0.0398524403572083,0.165363118159028
5.809688755,0.191027641296387,0.0520663261413574,0.0579803287982941,0.206310883340355
5.814688755,0.221002578735352,0.02536940574646,0.0673910677433014,0.232437739119933
5.819688755,0.20313549041748,0.00523388385772705,0.0728420317173004,0.215864268910097
5.824688755,0.152755737304688,-0.0269975662231445,0.0479358732700348,0.16236080748639
5.829688755,0.0435409545898438,-0.0455930233001709,0.0616790354251862,0.0881977432320472
5.834688755,-0.0873956680297852,-0.0877883434295654,0.0360337495803833,0.129008632041819
5.839688755,-0.135682106018066,-0.148397326469421,0.000687271356582642,0.201076783191614
5.844688755,-0.137923240661621,-0.218382477760315,-0.0318063199520111,0.260240982353333
5.849688755,-0.0711784362792969,-0.300890326499939,-0.067321240901947,0.316438790051068
5.854688755,-0.0749120712280273,-0.368299245834351,-0.118198812007904,0.393988720724216
5.859688755,-0.0632047653198242,-0.444346785545349,-0.194902360439301,0.489311596315098
5.864688755,-0.0323476791381836,-0.498995542526245,-0.265677124261856,0.566239576648205
5.869688755,-0.0511846542358398,-0.546460509300232,-0.349629580974579,0.650753256577615
5.874688755,-0.132909774780273,-0.583162724971771,-0.399784803390503,0.71942453464601
5.879688755,-0.248784065246582,-0.604436814785004,-0.425637155771256,0.780002796508513
5.884688755,-0.386407852172852,-0.63481742143631,-0.476811856031418,0.88298002969037
5.889688755,-0.429932594299316,-0.657511532306671,-0.587708592414856,0.981103888665955
5.894688755,-0.47137451171875,-0.696639776229858,-0.632220208644867,1.05223728328863
5.899688755,-0.535798072814941,-0.750619053840637,-0.641830861568451,1.12359040298612
5.904688755,-0.583622932434082,-0.816183388233185,-0.622680187225342,1.18089020067648
5.909688755,-0.507597923278809,-0.864823758602142,-0.642151355743408,1.19077040139684
5.914688755,-0.358683586120605,-0.920442342758179,-0.658365845680237,1.18714515037242
5.919688755,-0.244148254394531,-0.957507014274597,-0.633222460746765,1.17362631927847
5.924688755,-0.134033203125,-1.01282858848572,-0.58832198381424,1.17894419114437
5.929688755,-0.0802040100097656,-1.05929327011108,-0.525266289710999,1.18509054102674
5.934688755,-0.0291328430175781,-1.09651827812195,-0.547652542591095,1.22601972423134
5.939688755,-0.0449247360229492,-1.14155840873718,-0.529098451137543,1.25901509262655
5.944688755,-0.151230812072754,-1.17130279541016,-0.502415955066681,1.28344956619315
5.949688755,0.00655937194824219,-1.18293392658234,-0.460358738899231,1.26937223401993
5.954688755,-0.0653514862060547,-1.21644914150238,-0.388649463653564,1.278697671934
5.959688755,0.027064323425293,-1.23823928833008,-0.33109050989151,1.28202571678842
5.964688755,0.126102447509766,-1.24956881999969,-0.26221752166748,1.28299730781199
5.969688755,0.247442245483398,-1.26592361927032,-0.212169229984283,1.30721308776667
5.974688755,0.294515609741211,-1.28496813774109,-0.15667200088501,1.32756494200937
5.979688755,0.320330619812012,-1.2652850151062,-0.141447722911835,1.31284627194443
5.984688755,0.264665603637695,-1.26720309257507,-0.0932826995849609,1.29790339456471
5.989688755,0.239795684814453,-1.27049791812897,-0.10571163892746,1.29724395586582
5.994688755,0.228457450866699,-1.2624876499176,-0.104847729206085,1.2872687828774
5.999688755,0.225861549377441,-1.24444651603699,-0.121965944766998,1.27064403451426
6.004688755,0.240479469299316,-1.24689078330994,-0.118513107299805,1.27538714014985
6.009688755,0.270455360412598,-1.23550379276276,-0.139549493789673,1.27243458972319
6.014688755,0.386219024658203,-1.2004280090332,-0.147064328193665,1.26957491173479
6.019688755,0.471451759338379,-1.1714905500412,-0.139939844608307,1.27052746146161
6.024688755,0.571243286132813,-1.14837157726288,-0.140708565711975,1.29030038048579
6.029688755,0.645440101623535,-1.10745191574097,-0.132498443126678,1.28864211784852
6.034688755,0.761946678161621,-1.05537843704224,-0.124866455793381,1.30766127782299
6.039688755,0.841135025024414,-1.03664088249207,-0.0917230248451233,1.33811268690775
6.044688755,0.895463943481445,-0.997503817081451,-0.0691641569137573,1.3422567637263
6.049688755,0.94996452331543,-0.949607312679291,-0.0260586440563202,1.34345290084243
6.054688755,0.95316219329834,-0.909833252429962,0.0363679826259613,1.31819472921146
6.059688755,0.982213020324707,-0.858905673027039,0.0807439088821411,1.30727998197593
6.064688755,0.97885799407959,-0.815999209880829,0.154924720525742,1.28375206022411
6.069688755,0.975258827209473,-0.765206336975098,0.238897740840912,1.26243520577324
6.074688755,0.981273651123047,-0.721904039382935,0.313172161579132,1.25782360577861
6.079688755,0.975011825561523,-0.670031368732452,0.402167916297913,1.24953156341475
6.084688755,0.933649063110352,-0.629050135612488,0.461215615272522,1.21660367003069
6.089688755,0.850043296813965,-0.590683400630951,0.527469277381897,1.16176775855636
6.094688755,0.731225967407227,-0.546000719070435,0.575425624847412,1.07885256192267
6.099688755,0.579071044921875,-0.511447548866272,0.607869982719421,0.983060418387161
6.104688755,0.38926887512207,-0.464264333248138,0.627478659152985,0.872239127738241
6.109688755,0.194539070129395,-0.428849458694458,0.639485597610474,0.794165686478939
6.114688755,-0.00119113922119141,-0.393355548381805,0.621431708335877,0.735464053765132
6.119688755,-0.175229072570801,-0.364184319972992,0.60075980424881,0.724049576472
6.124688755,-0.269908905029297,-0.33504056930542,0.600923001766205,0.739061197835687
6.129688755,-0.368989944458008,-0.282419502735138,0.560154438018799,0.727796227709682
6.134688755,-0.441327095031738,-0.234239101409912,0.536443114280701,0.73308169824219
6.139688755,-0.472964286804199,-0.178734838962555,0.502758264541626,0.713026810026161
6.144688755,-0.483960151672363,-0.135289192199707,0.478574693202972,0.693941158101395
6.149688755,-0.498567581176758,-0.066314697265625,0.461836695671082,0.682832633624271
6.154688755,-0.516879081726074,-0.0141872763633728,0.450622200965881,0.685875813788426
6.159688755,-0.589212417602539,0.0529512763023376,0.458835959434509,0.748669184880253
6.164688755,-0.670573234558106,0.0902338027954102,0.469237923622131,0.823404415240682
6.169688755,-0.738101005554199,0.138535022735596,0.511403322219849,0.908580433919843
6.174688755,-0.784601211547852,0.176222383975983,0.574014604091644,0.988001090832911
6.179688755,-0.809585571289063,0.234234929084778,0.608874082565308,1.03972229352964
6.184688755,-0.811727523803711,0.290649712085724,0.65464448928833,1.08256096151284
6.189688755,-0.893100738525391,0.347042798995972,0.700572729110718,1.18695820577778
6.194688755,-0.992660522460938,0.371840238571167,0.740991830825806,1.2933325052838
6.199688755,-1.11809825897217,0.406134963035584,0.759553670883179,1.41138623483036
6.204688755,-1.17235660552979,0.452725231647491,0.761064827442169,1.46921741667773
6.209688755,-1.17346572875977,0.499213457107544,0.79212236404419,1.50123073907708
6.214688755,-1.14837265014648,0.515861570835114,0.804880082607269,1.49422382903192
6.219688755,-1.12131595611572,0.540519773960114,0.809092938899994,1.48463547150788
6.224688755,-1.06402969360352,0.559535622596741,0.789124965667725,1.43803946860467
6.229688755,-0.984915733337402,0.578252553939819,0.765634417533875,1.37500221062583
6.234688755,-0.868824005126953,0.584656059741974,0.695343554019928,1.25705231322921
6.239688755,-0.787848472595215,0.575152814388275,0.613620817661285,1.15240465268788
6.244688755,-0.653787612915039,0.570435643196106,0.563318967819214,1.03448698654676
6.249688755,-0.475405693054199,0.551541388034821,0.522814631462097,0.896405942960313
6.254688755,-0.28763484954834,0.518752336502075,0.481045871973038,0.763703426889888
6.259688755,-0.0928220748901367,0.485157012939453,0.410780817270279,0.642443884419862
6.264688755,0.0721454620361328,0.448813736438751,0.314542353153229,0.552788955783028
6.269688755,0.223799705505371,0.443106114864349,0.258819252252579,0.559836353366815
6.274688755,0.298189163208008,0.404634714126587,0.200621247291565,0.541197666103449
6.279688755,0.384700775146484,0.403935670852661,0.129789054393768,0.572716257169223
6.284688755,0.438279151916504,0.400646269321442,0.0582599639892578,0.596657583149555
6.289688755,0.398913383483887,0.398909568786621,-0.0116973519325256,0.564267276770791
6.294688755,0.310845375061035,0.385592699050903,-0.0651135444641113,0.499546144446012
6.299688755,0.239662170410156,0.377914845943451,-0.116263568401337,0.462357874430166
6.304688755,0.218174934387207,0.363356351852417,-0.14321780204773,0.447369510862936
6.309688755,0.205987930297852,0.350444912910461,-0.18800413608551,0.447870762160774
6.314688755,0.193672180175781,0.330033749341965,-0.223057091236115,0.442928498777705
6.319688755,0.214455604553223,0.309978038072586,-0.273671507835388,0.465804341556101
6.324688755,0.195964813232422,0.282128006219864,-0.319339096546173,0.469015861673931
6.329688755,0.199160575866699,0.271374374628067,-0.355445027351379,0.489540757908014
6.334688755,0.187511444091797,0.250095933675766,-0.389569342136383,0.499472511795312
6.339688755,0.220647811889648,0.228214532136917,-0.426551938056946,0.531708459054676
6.344688755,0.212889671325684,0.236296534538269,-0.465520739555359,0.563797502076873
6.349688755,0.194700241088867,0.237674951553345,-0.514327704906464,0.599108132568986
6.354688755,0.195906639099121,0.245540708303452,-0.526917397975922,0.613442413733343
6.359688755,0.191750526428223,0.233953267335892,-0.571988821029663,0.647049926254183
6.364688755,0.195096969604492,0.247266680002213,-0.615475952625275,0.691385772812951
6.369688755,0.197098731994629,0.240516990423203,-0.655133545398712,0.725187075962342
6.374688755,0.208540916442871,0.238002002239227,-0.698086678981781,0.766458921451454
6.379688755,0.182559967041016,0.233366787433624,-0.733008980751038,0.790626564760369
6.384688755,0.155410766601563,0.213534265756607,-0.779932081699371,0.823433932438914
6.389688755,0.0752630233764648,0.212327718734741,-0.820458889007568,0.850823349105088
6.394688755,0.0397977828979492,0.220591008663178,-0.846851825714111,0.876014994929855
6.399688755,-0.00640296936035156,0.217659831047058,-0.868778467178345,0.895652178639017
6.404688755,-0.0589485168457031,0.219206094741821,-0.891343474388123,0.919793144649686
6.409688755,-0.0851774215698242,0.203308194875717,-0.889427125453949,0.916335106138677
6.414688755,-0.0956659317016602,0.217664271593094,-0.903943479061127,0.934688995844946
6.419688755,-0.121477127075195,0.234060510993004,-0.889484465122223,0.927751922068888
6.424688755,-0.135479927062988,0.216442242264748,-0.896293163299561,0.931956806644555
6.429688755,-0.104806900024414,0.219927176833153,-0.878804087638855,0.911947955671424
6.434688755,-0.0487117767333984,0.207119062542915,-0.849182486534119,0.875432486658708
6.439688755,0.0205039978027344,0.185858741402626,-0.799622237682343,0.821194014029437
6.444688755,0.0761184692382813,0.18256302177906,-0.757639110088348,0.78303275756238
6.449688755,0.186618804931641,0.165521442890167,-0.726612687110901,0.768238194495093
6.454688755,0.274415969848633,0.17769867181778,-0.684328556060791,0.758410518857707
6.459688755,0.34735107421875,0.187880963087082,-0.619496464729309,0.734661755410993
6.464688755,0.35551929473877,0.185832336544991,-0.565984725952148,0.693733620526244
6.469688755,0.389301300048828,0.191617101430893,-0.507959067821503,0.66805316432345
6.474688755,0.40576171875,0.190616831183434,-0.450898170471191,0.635835284383963
6.479688755,0.396137237548828,0.21272911131382,-0.385599374771118,0.59233880811328
6.484688755,0.338814735412598,0.221229121088982,-0.364612340927124,0.544683309921342
6.489688755,0.294916152954102,0.238237991929054,-0.315023362636566,0.492922506159421
6.494688755,0.258575439453125,0.272410750389099,-0.284830391407013,0.471378008274676
6.499688755,0.177853584289551,0.28512641787529,-0.245949447154999,0.41643739285862
6.504688755,0.0295200347900391,0.307245582342148,-0.172373712062836,0.353530729828529
6.509688755,-0.0765571594238281,0.324436277151108,-0.136145889759064,0.360077213787547
6.514688755,-0.103724479675293,0.355627357959747,-0.105766952037811,0.385248275215749
6.519688755,-0.184322357177734,0.372057110071182,-0.0640016198158264,0.420115974284632
6.524688755,-0.232562065124512,0.407004594802856,-0.003803551197052,0.468777475277262
6.529688755,-0.259441375732422,0.417809963226318,0.0420439839363098,0.493601751818555
6.534688755,-0.208670616149902,0.451170861721039,0.115263879299164,0.510278683056207
6.539688755,-0.149025917053223,0.481109082698822,0.188953518867493,0.537938756459566
6.544688755,-0.0770864486694336,0.49498450756073,0.269271671772003,0.568734750575779
6.549688755,0.0185270309448242,0.514959216117859,0.336154013872147,0.615244476759203
6.554688755,0.117837905883789,0.540764451026917,0.411754220724106,0.689821355020004
6.559688755,0.209080696105957,0.554154098033905,0.482940971851349,0.764220834670613
6.564688755,0.288945198059082,0.594720542430878,0.558676064014435,0.865621623790291
6.569688755,0.336212158203125,0.627051115036011,0.60119366645813,0.931485663218107
6.574688755,0.336601257324219,0.656429767608643,0.682504057884216,1.00499364936471
6.579688755,0.304664611816406,0.69006210565567,0.713016331195831,1.03797809413645
6.584688755,0.293645858764648,0.715401351451874,0.776963412761688,1.09622038331673
6.589688755,0.280956268310547,0.74550199508667,0.838781118392944,1.15683335617267
6.594688755,0.267590522766113,0.767318725585938,0.859349310398102,1.18273579120223
6.599688755,0.306241989135742,0.791945278644562,0.902931571006775,1.23945427596099
6.604688755,0.278582572937012,0.819316983222961,0.950127005577087,1.28515753729598
6.609688755,0.237428665161133,0.830712497234345,0.971956014633179,1.30044381596558
6.614688755,0.181035995483398,0.855469107627869,0.992149770259857,1.32248349418546
6.619688755,0.109033584594727,0.867154955863953,0.974840819835663,1.30925958620392
6.624688755,0.00137901306152344,0.885727226734161,0.978662669658661,1.31996031866061
6.629688755,-0.101142883300781,0.918240070343018,1.01126050949097,1.36968701814753
6.634688755,-0.219692230224609,0.92942750453949,1.00304353237152,1.38498970756028
6.639688755,-0.280852317810059,0.944378137588501,0.997625648975372,1.40213588024412
6.644688755,-0.341959953308105,0.937717795372009,0.99836128950119,1.41172820960633
6.649688755,-0.354007720947266,0.939487278461456,0.995398163795471,1.41378050537153
6.654688755,-0.381377220153809,0.928017973899841,1.00784850120544,1.42211973663102
6.659688755,-0.406150817871094,0.910370230674744,1.01243185997009,1.42082747539546
6.664688755,-0.396249771118164,0.897874534130096,0.989077091217041,1.39336501051264
6.669688755,-0.40579891204834,0.881801843643189,0.970435500144959,1.37258599308522
6.674688755,-0.400025367736816,0.870636880397797,0.956433176994324,1.35380696349119
6.679688755,-0.409002304077148,0.84589433670044,0.93968653678894,1.32884570248945
6.684688755,-0.411137580871582,0.832192838191986,0.889102160930634,1.28533329643112
6.689688755,-0.420852661132813,0.809772074222565,0.883194029331207,1.26999191651742
6.694688755,-0.41187858581543,0.770182967185974,0.842108845710754,1.21324897709457
6.699688755,-0.391142845153809,0.752229928970337,0.809638023376465,1.17232944185953
6.704688755,-0.369185447692871,0.70637321472168,0.765617489814758,1.10518376479872
6.709688755,-0.305870056152344,0.662856578826904,0.7231724858284,1.02757665388231
6.714688755,-0.274417877197266,0.605639219284058,0.669315218925476,0.943444167688642
6.719688755,-0.275479316711426,0.552175104618073,0.599614024162293,0.860420349636079
6.724688755,-0.327778816223145,0.51400089263916,0.527697563171387,0.806288154554883
6.729688755,-0.374776840209961,0.469156175851822,0.454522222280502,0.753097369431387
6.734688755,-0.452473640441895,0.421280354261398,0.376124441623688,0.723656774837409
6.739688755,-0.486355781555176,0.379483789205551,0.299149692058563,0.685594946583391
6.744688755,-0.510961532592773,0.335114002227783,0.204376250505447,0.644323470043847
6.749688755,-0.449684143066406,0.300120770931244,0.134484648704529,0.557112579652365
6.754688755,-0.409034729003906,0.267412453889847,0.0749988555908203,0.494412437512065
6.759688755,-0.279729843139648,0.23138827085495,-0.00530916452407837,0.363066804128551
6.764688755,-0.255475997924805,0.194874867796898,-0.0823836326599121,0.331709605746919
6.769688755,-0.162248611450195,0.169524163007736,-0.165646493434906,0.287231291032628
6.774688755,-0.113443374633789,0.141969263553619,-0.203556597232819,0.272873522569089
6.779688755,0.0134820938110352,0.115256227552891,-0.244360566139221,0.270514049777704
6.784688755,0.11580753326416,0.0819476246833801,-0.26771467924118,0.302981760891948
6.789688755,0.228775978088379,0.0475914478302002,-0.285584628582001,0.369001319969439
6.794688755,0.334684371948242,0.0524995774030685,-0.293675065040588,0.448346828114668
6.799688755,0.417598724365234,0.0312105398625135,-0.291090369224548,0.509996466110565
6.804688755,0.423366546630859,0.0224611759185791,-0.308289170265198,0.524200295433519
6.809688755,0.46516227722168,0.0227447841316462,-0.304497420787811,0.556427846734582
6.814688755,0.43950366973877,0.0208965949714184,-0.318672597408295,0.543279272321514
6.819688755,0.434647560119629,0.0147251822054386,-0.312784671783447,0.535695420375803
6.824688755,0.48979663848877,0.017713375389576,-0.330154001712799,0.590945154468302
6.829688755,0.478120803833008,0.0153246335685253,-0.343133628368378,0.588706237752904
6.834688755,0.439121246337891,-0.0213712844997644,-0.369293630123138,0.574161985885549
6.839688755,0.435062408447266,-0.0239101983606815,-0.359844982624054,0.565101237256908
6.844688755,0.358386039733887,-0.0328886024653912,-0.396027803421021,0.535126372673543
6.849688755,0.311389923095703,-0.0527617409825325,-0.419535040855408,0.525125828752123
6.854688755,0.338493347167969,-0.0679403841495514,-0.442386448383331,0.561158989581902
6.859688755,0.374557495117188,-0.109314687550068,-0.457403361797333,0.601216145363822
6.864688755,0.445951461791992,-0.114640109241009,-0.447346329689026,0.641976479014183
6.869688755,0.485926628112793,-0.134381741285324,-0.460655331611633,0.682924940855266
6.874688755,0.481551170349121,-0.145653203129768,-0.488141417503357,0.700991033272721
6.879688755,0.532180786132813,-0.156448617577553,-0.481822907924652,0.734742045667616
6.884688755,0.567554473876953,-0.154789134860039,-0.499116957187653,0.771489140585093
6.889688755,0.583990097045898,-0.15585532784462,-0.51507431268692,0.794126478752053
6.894688755,0.583079338073731,-0.130715250968933,-0.512665390968323,0.787333343902743
6.899688755,0.577757835388184,-0.116147354245186,-0.506570756435394,0.777115342485351
6.904688755,0.581132888793945,-0.0921683833003044,-0.487504780292511,0.764114753244719
6.909688755,0.584793090820313,-0.0702800750732422,-0.483414709568024,0.761979021660184
6.914688755,0.566344261169434,-0.0336763337254524,-0.469139277935028,0.736187190675129
6.919688755,0.534737586975098,0.0166520662605762,-0.422111928462982,0.681469044333955
6.924688755,0.510489463806152,0.0630894154310226,-0.379343271255493,0.63912524941778
6.929688755,0.47868824005127,0.114979393780231,-0.346674501895905,0.602117847619737
6.934688755,0.460894584655762,0.165154159069061,-0.306263208389282,0.577491876337419
6.939688755,0.468830108642578,0.204854488372803,-0.264882326126099,0.576133386352733
6.944688755,0.485879898071289,0.215552091598511,-0.217891216278076,0.574472420289607
6.949688755,0.506025314331055,0.251637816429138,-0.135499656200409,0.581156920488345
6.954688755,0.516458511352539,0.265744566917419,-0.0966231226921082,0.588800133010669
6.959688755,0.522208213806152,0.299358189105988,-0.0388805270195007,0.603181928884431
6.964688755,0.499408721923828,0.315141141414642,0.0215049386024475,0.590919176309257
6.969688755,0.431840896606445,0.34246426820755,0.095521092414856,0.55936804885238
6.974688755,0.324367523193359,0.372383236885071,0.166335940361023,0.521105757280979
6.979688755,0.187541007995605,0.405841767787933,0.187063455581665,0.484635849453377
6.984688755,0.0587520599365234,0.437830358743668,0.251198768615723,0.508181118242747
6.989688755,-0.0804262161254883,0.472713619470596,0.27509605884552,0.552814963496461
