Time (s),Linear Acceleration x (m/s^2),Linear Acceleration y (m/s^2),Linear Acceleration z (m/s^2),Absolute acceleration (m/s^2)
0.020395107,0.00270652770996094,-0.00138735771179199,0.00886937975883484,0.00937635062120035
0.025395107,0.00304031372070313,-0.00127530097961426,0.00437650084495544,0.0054793849796119
0.030395107,0.0121011734008789,-0.0034482479095459,-0.00356072187423706,0.0130769855696753
0.035395107,0.00321483612060547,-0.0100786685943604,-0.0108543336391449,0.0151568892147158
0.040395107,0.00938796997070313,-0.00121605396270752,-0.0229198932647705,0.0247978683495076
0.045395107,0.0189132690429688,-0.00112390518188477,-0.018159031867981,0.0262435772548625
0.050395107,0.0265378952026367,-0.00108027458190918,-0.00984674692153931,0.0283264064063074
0.055395107,0.0386276245117188,-0.00102090835571289,-0.00779533386230469,0.0394195745704326
0.060395107,0.0257062911987305,-0.00499832630157471,-0.0145553946495056,0.0299609109743645
0.065395107,0.035853385925293,-0.00529134273529053,-0.0317560434341431,0.0481862001494358
0.070395107,0.033076286315918,-0.00623834133148193,-0.0500895977020264,0.0603483671442029
0.075395107,0.0327377319335938,-0.00338888168334961,-0.0709338486194611,0.0781975350710507
0.080395107,0.0302610397338867,-0.00521969795227051,-0.0730922818183899,0.0792808768487568
0.085395107,0.023188591003418,-0.00665605068206787,-0.0857800245285034,0.0891079478582955
0.090395107,0.0295858383178711,-0.0113803148269653,-0.107471197843552,0.112048613380353
0.095395107,0.0288763046264648,-0.013454794883728,-0.106988072395325,0.111630283118475
0.100395107,0.0312614440917969,-0.000701427459716797,-0.0939976274967194,0.0990622221747413
0.105395107,0.018925666809082,-0.00248396396636963,-0.082544207572937,0.0847224713107374
0.110395107,0.00308322906494141,-0.0073007345199585,-0.0849140882492065,0.0852831132709861
0.115395107,-0.0172529220581055,-0.000736117362976074,-0.0799910128116608,0.0818337785938693
0.120395107,-0.0387630462646484,-0.00307846069335938,-0.0678465068340302,0.0781997389096405
0.125395107,-0.0424032211303711,-0.00653433799743652,-0.0591989755630493,0.0731112128405103
0.130395107,-0.0679330825805664,-0.000682353973388672,-0.027605414390564,0.0733309499428298
0.135395107,-0.0721883773803711,0.00255560874938965,-0.00820815563201904,0.072698464796516
0.140395107,-0.0704555511474609,0.00243055820465088,-0.00842809677124023,0.0709994726449716
0.145395107,-0.0572586059570313,0.00595605373382568,0.000516951084136963,0.0575698686002164
0.150395107,-0.0677289962768555,-0.0122959613800049,-0.00971680879592896,0.0695185153473916
0.155395107,-0.0639514923095703,-0.00774431228637695,-0.00178837776184082,0.0644435104291271
0.160395107,-0.0447597503662109,-0.00488662719726563,0.00356441736221313,0.0451665744698734
0.165395107,-0.0180797576904297,-0.00168979167938232,0.00418007373809814,0.0186334658751478
0.170395107,-0.0108547210693359,-0.0140261650085449,0.0199951529502869,0.0267275965220478
0.175395107,0.0172414779663086,-0.0184804201126099,0.0260390341281891,0.0362880943055743
0.180395107,0.0171518325805664,-0.0231237411499023,0.0191591084003449,0.0345827153406963
0.185395107,0.0330333709716797,-0.0236016511917114,0.00886771082878113,0.0415557196071817
0.190395107,0.0451250076293945,-0.00641918182373047,0.00871095061302185,0.0464042333135839
0.195395107,0.0419759750366211,-0.0133017301559448,-0.011707067489624,0.0455628569629169
0.200395107,0.0366916656494141,-0.0149017572402954,-0.0235137939453125,0.0460569126481542
0.205395107,0.0440902709960938,-0.0197392702102661,-0.00780406594276428,0.0489335695630505
0.210395107,0.0254240036010742,0.016327977180481,-0.00769394636154175,0.0311797948762981
0.215395107,0.0225534439086914,-0.00661110877990723,-0.00560584664344788,0.0241617488612085
0.220395107,0.0258712768554688,-0.0189625024795532,-0.0113371312618256,0.0340210230837821
0.225395107,0.0196828842163086,-0.00698864459991455,-0.0239414870738983,0.0317718725876547
0.230395107,0.00234222412109375,-0.018051028251648,-0.0189043879508972,0.0262431232625473
0.235395107,-0.00819492340087891,-0.00569677352905273,-0.0158011913299561,0.0186892387654893
0.240395107,-0.0168485641479492,-0.0172175168991089,-0.0104805827140808,0.0262708891369392
0.245395107,-0.00782680511474609,-0.0134909152984619,0.00143179297447205,0.015662493575936
0.250395107,-0.0276784896850586,-0.0167132616043091,0.00171273946762085,0.0323784709519136
0.255395107,-0.0300264358520508,-0.0136735439300537,0.0102105736732483,0.0345370593467548
0.260395107,-0.021998405456543,-0.0115152597427368,0.0124852955341339,0.0277923308512946
0.265395107,-0.0333681106567383,-0.0157101154327393,0.0215333104133606,0.0427073997460448
0.270395107,-0.0143146514892578,-0.00735831260681152,0.0265330970287323,0.0310331959297555
0.275395107,-0.00920295715332031,-0.0159080028533936,0.0183933079242706,0.0260013990305611
0.280395107,-0.0155048370361328,-0.0157577991485596,0.0270776748657227,0.0349558104133944
0.285395107,-0.0042877197265625,-0.0212154388427734,0.0326313972473145,0.0391572148148595
0.290395107,-0.000497817993164063,-0.0210363864898682,0.0725734531879425,0.0755624475975197
0.295395107,0.0392732620239258,-0.0592676401138306,0.376361817121506,0.38301861529391
0.300395107,0.0307826995849609,-0.063563346862793,0.612142741680145,0.616203383510528
0.305395107,0.00494194030761719,-0.0857304334640503,0.855216383934021,0.859516837150455
0.310395107,-0.0855207443237305,-0.0802614688873291,0.930662751197815,0.938023910977072
0.315395107,-0.169925689697266,-0.0754786729812622,0.863729119300842,0.88351556954154
0.320395107,-0.199648857116699,-0.0423864126205444,0.725649178028107,0.753805680328631
0.325395107,-0.173050880432129,-0.029456615447998,0.538867890834808,0.566738831548308
0.330395107,-0.0982198715209961,-0.0180346965789795,0.326791048049927,0.34170862226152
0.335395107,-0.0511302947998047,-0.00906753540039063,0.154029488563538,0.162547256487759
0.340395107,0.00148963928222656,-0.0119054317474365,-0.0128989517688751,0.0176165060956987
0.345395107,0.053553581237793,-0.00752663612365723,-0.118878602981567,0.130601525877686
0.350395107,0.0793752670288086,-0.0233324766159058,-0.133884131908417,0.157384237640867
0.355395107,0.0807943344116211,-0.00372648239135742,-0.16302227973938,0.18198317184689
0.360395107,0.0748176574707031,-0.00403928756713867,-0.139891654253006,0.158693643990854
0.365395107,0.0675497055053711,-0.00477480888366699,-0.129457861185074,0.146099621273814
0.370395107,0.0397043228149414,-0.00728201866149902,-0.0941242873668671,0.102415050252881
0.375395107,0.0183162689208984,-0.01322340965271,-0.0764161944389343,0.0796855008301703
0.380395107,0.00282859802246094,0.000761866569519043,-0.0686196982860565,0.0686821985692934
0.385395107,-0.0140523910522461,-0.00124120712280273,-0.0493931770324707,0.0513682414217962
0.390395107,-0.0164270401000977,0.00375699996948242,-0.0377225577831268,0.0413153005667664
0.395395107,0.0000705718994140625,0.00225377082824707,-0.028077632188797,0.0281680296199186
0.400395107,-0.000597953796386719,0.0039982795715332,-0.0175277888774872,0.0179879729599673
0.405395107,-0.00355339050292969,-0.00121903419494629,-0.0261974930763245,0.0264654732041358
0.410395107,-0.00473880767822266,-0.0018082857131958,-0.0222923755645752,0.0228621128451375
0.415395107,-0.00574684143066406,0.00344347953796387,0.00875875353813171,0.0110272163894297
0.420395107,-0.0159358978271484,0.00485551357269287,0.00542715191841126,0.0175209254766246
0.425395107,-0.0178985595703125,-0.00704610347747803,-0.00988960266113281,0.0216289216028548
0.430395107,-0.00712108612060547,0.000198483467102051,-0.0119714438915253,0.0139307118293263
0.435395107,-0.000405311584472656,-0.0135838985443115,-0.00343769788742065,0.0140180007100811
0.440395107,0.0203771591186523,-0.0138493776321411,-0.00332441926002502,0.024861328161644
0.445395107,0.00927066802978516,-0.0077592134475708,-0.0354330837726593,0.037438671246236
0.450395107,0.0159292221069336,-0.00322222709655762,-0.0303439199924469,0.0344220328409266
0.455395107,0.0197839736938477,-0.006744384765625,-0.0448998808860779,0.0495266760904629
0.460395107,0.00614166259765625,-0.0122846364974976,-0.0441262125968933,0.0462142288855427
0.465395107,0.00693035125732422,-0.0084003210067749,-0.0482029318809509,0.0494177883305835
0.470395107,0.00125694274902344,0.00185620784759521,-0.0774087607860565,0.0774412142149174
0.475395107,-0.0083160400390625,-0.00148236751556396,-0.0753796398639679,0.0758514603775299
0.480395107,-0.00362777709960938,-0.0032576322555542,-0.0843056738376617,0.084446548631777
0.485395107,-0.0236244201660156,-0.00994563102722168,-0.100011169910431,0.103243706401713
0.490395107,-0.0343799591064453,-0.00935781002044678,-0.11271271109581,0.118210428639385
0.495395107,-0.032383918762207,-0.00537025928497314,-0.104001998901367,0.1090594959399
0.500395107,-0.0351428985595703,0.00478267669677734,-0.0838767290115356,0.0910670246863744
0.505395107,-0.0360107421875,-0.00655972957611084,-0.0859053432941437,0.093378432260833
0.510395107,-0.0431423187255859,0.00773441791534424,-0.0862447321414948,0.0967431377807616
0.515395107,-0.0312061309814453,-0.0136393308639526,-0.0761315524578095,0.083401841927404
0.520395107,-0.0173749923706055,-0.00814485549926758,-0.0507100522518158,0.0542193547579131
0.525395107,0.00269889831542969,-0.0119237899780273,0.00610294938087463,0.0136640700635884
0.530395107,0.0302066802978516,-0.0454621315002441,0.19396410882473,0.201497703330171
0.535395107,0.0501890182495117,-0.0478230714797974,0.31033980846405,0.317988648281845
0.540395107,0.0430173873901367,-0.0556159019470215,0.39749863743782,0.403669160244101
0.545395107,0.0105905532836914,-0.060985803604126,0.436344057321548,0.440712564399889
0.550395107,-0.0136613845825195,-0.0608541965484619,0.451504528522491,0.45579184497157
0.555395107,-0.0358152389526367,-0.0562394857406616,0.398199707269669,0.403743257488293
0.560395107,-0.0631875991821289,-0.0308456420898438,0.329830467700958,0.337242144089627
0.565395107,-0.0581979751586914,-0.0378772020339966,0.223930880427361,0.234449836757181
0.570395107,-0.0478420257568359,-0.0279718637466431,0.133578151464462,0.144618142494783
0.575395107,-0.0274257659912109,-0.0223839282989502,0.0369119644165039,0.0511439732850554
0.580395107,-0.00444316864013672,-0.0108187198638916,-0.0605010986328125,0.0616211764155421
0.585395107,0.00800132751464844,-0.00970065593719482,-0.0715273320674896,0.0726242604113903
0.590395107,0.00421810150146484,-0.00142288208007813,-0.0780725479125977,0.0781993587649881
0.595395107,0.00340366363525391,-0.000256180763244629,-0.0851859450340271,0.0852543006895587
0.600395107,0.000889778137207031,-0.0221278667449951,-0.0922482907772064,0.0948692855624714
0.605395107,0.00645542144775391,-0.0182757377624512,-0.0960116982460022,0.0979485643432888
0.610395107,0.0150766372680664,-0.0172572135925293,-0.105607807636261,0.108065375796453
0.615395107,0.00630283355712891,-0.024347186088562,-0.0819957256317139,0.0857660200962551
0.620395107,0.00854682922363281,-0.0249600410461426,-0.0798905193805695,0.0841341014434707
0.625395107,0.0170736312866211,-0.0270000696182251,-0.0624691247940064,0.0701634106727262
0.630395107,0.0129251480102539,-0.0164861679077148,-0.0778643190860748,0.0806331530457939
0.635395107,0.00789165496826172,-0.0193428993225098,-0.0598776936531067,0.0634173806582559
0.640395107,-0.000103950500488281,-0.0190598964691162,-0.0556960701942444,0.0588671614247042
0.645395107,-0.00975131988525391,-0.0107026100158691,-0.0541605651378632,0.0560624733374211
0.650395107,0.00301647186279297,-0.0185986757278442,-0.0469809174537659,0.0506183410052729
0.655395107,-0.00259971618652344,-0.0192856788635254,-0.0445609986782074,0.0486248756983162
0.660395107,-0.00644683837890625,-0.0246553421020508,-0.0394130051136017,0.0469343434101052
0.665395107,-0.00390625,-0.024971604347229,-0.033156156539917,0.0416913723597164
0.670395107,0.00498104095458984,-0.0225999355316162,-0.034485787153244,0.0415311614405781
0.675395107,0.00773525238037109,-0.0266208648681641,-0.0324958264827728,0.0427139709523192
0.680395107,0.00786685943603516,-0.0272818803787231,-0.0361670255661011,0.0459808896465075
0.685395107,0.0113391876220703,-0.0286206007003784,-0.0327898561954498,0.0449765564455227
0.690395107,0.00572586059570313,-0.0245064496994019,-0.0389623641967773,0.0463833739634479
0.695395107,0.00280380249023438,-0.030797004699707,-0.0166160464286804,0.0351056947773162
0.700395107,0.00628662109375,-0.0331807136535645,0.0511418879032135,0.0612860021672248
0.705395107,0.00339031219482422,-0.0482497215270996,0.109367787837982,0.119586131557112
0.710395107,-0.00146865844726563,-0.0492856502532959,0.168854355812073,0.175906298225035
0.715395107,-0.0013427734375,-0.048792839050293,0.182473614811897,0.188889291082403
0.720395107,-0.0253372192382813,-0.0444495677947998,0.194559559226036,0.201174453751222
0.725395107,-0.0363960266113281,-0.035591721534729,0.17656446993351,0.183756505838023
0.730395107,-0.0233554840087891,-0.047349214553833,0.153350979089737,0.162184923898403
0.735395107,-0.0281219482421875,-0.0430378913879395,0.134438827633858,0.143933673765462
0.740395107,-0.0100488662719727,-0.0501899719238281,0.0958855748176575,0.10869248572546
0.745395107,-0.0142621994018555,-0.0380394458770752,0.0734796524047852,0.0839623075667961
0.750395107,-0.016143798828125,-0.0433456897735596,0.0388075411319733,0.0603779455700377
0.755395107,-0.01025390625,-0.0344641208648682,0.013512134552002,0.0384121855733755
0.760395107,0.0137319564819336,-0.0338449478149414,-0.00994661450386047,0.0378547521654314
0.765395107,0.0146760940551758,-0.0446749925613403,-0.027537614107132,0.0544936958536076
0.770395107,0.000959396362304688,-0.0263670682907105,-0.0178788900375366,0.0318715773158675
0.775395107,0.00410079956054688,-0.0315989255905151,-0.025129646062851,0.0405808793245644
0.780395107,-0.00764560699462891,-0.0283083915710449,-0.0192053616046906,0.0350523359281924
0.785395107,-0.00799274444580078,-0.0288851261138916,-0.00524091720581055,0.0304253461368883
0.790395107,0.00135993957519531,-0.0227411985397339,0.00706833600997925,0.0238531532637039
0.795395107,-0.00481414794921875,-0.0331090688705444,0.0163423418998718,0.0372351796118097
0.800395107,0.00240230560302734,-0.0333664417266846,0.0373170673847199,0.0501164047384317
0.805395107,-0.00588703155517578,-0.0274075269699097,0.0378406047821045,0.0470928980358333
0.810395107,-0.00257110595703125,-0.0160720348358154,0.039275586605072,0.0425146162252285
0.815395107,-0.0101804733276367,-0.0184434652328491,0.0297217667102814,0.0364305759404161
0.820395107,-0.00629425048828125,-0.0144261121749878,0.00949153304100037,0.0183798667340915
0.825395107,-0.014643669128418,-0.0180720090866089,-0.00388488173484802,0.0235823422090091
0.830395107,-0.0140323638916016,-0.0140407085418701,-0.00345602631568909,0.0201492642704096
0.835395107,-0.00685214996337891,-0.0180656909942627,-0.0309667587280273,0.0365001547440648
0.840395107,-0.0165529251098633,-0.0180250406265259,-0.0378522276878357,0.0450743004406325
0.845395107,-0.0114679336547852,-0.0148622989654541,-0.0386888384819031,0.0430026470804749
0.850395107,0.00787258148193359,-0.017177939414978,-0.0398435890674591,0.0440972871218955
0.855395107,-0.00473976135253906,-0.0131717920303345,-0.0411787033081055,0.0434930689777852
0.860395107,0.0135278701782227,-0.0162694454193115,-0.0590851604938507,0.0627594958264875
0.865395107,0.00792598724365234,-0.00830245018005371,-0.0387982130050659,0.0404605151371714
0.870395107,0.00963306427001953,-0.000959515571594238,-0.00432884693145752,0.0106045043787274
0.875395107,0.0174970626831055,-0.00685393810272217,0.00726351141929627,0.0201465200019933
0.880395107,0.0148992538452148,-0.0127793550491333,0.0285898149013519,0.0346796366288565
0.885395107,0.0138330459594727,-0.00783324241638184,0.0363396108150482,0.0396645958186877
0.890395107,0.000732421875,-0.007668137550354,0.0469863712787628,0.0476136100420864
0.895395107,0.00119113922119141,-0.00749754905700684,0.0589581429958344,0.0594448877534792
0.900395107,-0.00988864898681641,0.00523579120635986,0.0708913207054138,0.0717689225201194
0.905395107,-0.0175561904907227,0.00307488441467285,0.0753490030765533,0.0774283346284846
0.910395107,-0.0105457305908203,-0.0150195360183716,0.056467205286026,0.0593746087878946
0.915395107,-0.00944137573242188,0.00182712078094482,0.0728298723697662,0.0734620191355054
0.920395107,-0.0129251480102539,-0.0103486776351929,0.0710520744323731,0.0729558212963681
0.925395107,-0.00367355346679688,-0.0161256790161133,0.0449659824371338,0.0479110853074814
0.930395107,-0.00011444091796875,-0.00983428955078125,0.0368702113628387,0.0381593872282131
0.935395107,-0.00782394409179688,0.00187838077545166,0.0250704288482666,0.0263299984452173
0.940395107,-0.00911998748779297,-0.00980639457702637,-0.00344341993331909,0.0138273890237822
0.945395107,-0.0135431289672852,-0.00233328342437744,-0.00715354084968567,0.0154930210240325
0.950395107,-0.00903987884521484,-0.00237202644348145,-0.0292166769504547,0.0306750734475399
0.955395107,-0.00710678100585938,-0.00237774848937988,-0.0205837488174438,0.0219054956466092
0.960395107,0.00117397308349609,0.000359892845153809,-0.01663538813591,0.0166806436954076
0.965395107,0.00163650512695313,0.00238132476806641,-0.0267678499221802,0.026923347602739
0.970395107,0.000351905822753906,-0.00631237030029297,-0.0140314996242523,0.0153900239837858
0.975395107,-0.0127429962158203,-0.00193107128143311,-0.0151011049747467,0.0198533715098647
0.980395107,-0.00203418731689453,0.0036618709564209,-0.0041465163230896,0.0058941339108763
0.985395107,-0.00510787963867188,-0.00088810920715332,0.00215137004852295,0.00561316002378971
0.990395107,-0.00525951385498047,-0.0118342638015747,0.00538405776023865,0.0140249906838322
0.995395107,-0.0199546813964844,-0.00807428359985352,0.00558698177337647,0.022239553291874
1.000395107,-0.0142765045166016,-0.0113410949707031,0.00996243953704834,0.0207771320897856
1.005395107,-0.0225238800048828,-0.0085979700088501,-0.00605013966560364,0.0248566781513692
1.010395107,-0.0180721282958984,0.0104022026062012,0.0137646496295929,0.0249854601644501
1.015395107,-0.0115642547607422,-0.00274872779846191,0.00124216079711914,0.0119511696551963
1.020395107,-0.00353908538818359,0.0112192630767822,0.011752724647522,0.016628996542527
1.025395107,0.00397491455078125,-0.00583541393280029,0.0124170780181885,0.0142841110315942
1.030395107,0.00147628784179688,0.00162732601165771,0.0329583883285522,0.0330315451796567
1.035395107,-0.00700855255126953,-0.0143758058547974,0.00487062335014343,0.0167184501272605
1.040395107,0.00279045104980469,0.00093996524810791,0.0094606876373291,0.00990831783402805
1.045395107,0.0127840042114258,-0.00237822532653809,0.00961551070213318,0.0161723457001258
1.050395107,0.0142755508422852,-0.0144045352935791,0.00020638108253479,0.0202811385781436
1.055395107,0.00690555572509766,0.00180244445800781,0.00380343198776245,0.00808712561928939
1.060395107,0.00594997406005859,-0.0112009048461914,0.0191128849983215,0.0229382831451674
1.065395107,0.0166711807250977,0.00676727294921875,0.0197172164916992,0.0266925621872205
1.070395107,-0.00220298767089844,0.00119280815124512,0.0235063135623932,0.0236394315341414
1.075395107,0.00336265563964844,-0.0113067626953125,0.030358612537384,0.0325698586241018
1.080395107,0.00264263153076172,-0.0115611553192139,0.0408126711845398,0.042500799321186
1.085395107,-0.00295352935791016,-0.00267136096954346,0.0504423677921295,0.0505993277976507
1.090395107,0.000967025756835938,0.00767529010772705,0.052225649356842,0.0527954890856783
1.095395107,-0.0203971862792969,0.00447189807891846,0.0468898713588715,0.0513293592069109
1.100395107,-0.00680255889892578,0.00751721858978272,0.0448433458805084,0.0459750916547084
1.105395107,-0.00845718383789063,0.000434756278991699,0.0363269150257111,0.0373009078545715
1.110395107,-0.00986671447753906,-0.0036766529083252,0.0218438804149628,0.0242492256118163
1.115395107,-0.0123109817504883,0.00134813785552979,0.0127086937427521,0.0177451019716832
1.120395107,0.00603771209716797,-0.00632297992706299,0.00654503703117371,0.0109211515997978
1.125395107,0.00596714019775391,0.00789141654968262,-0.0135918855667114,0.0168113226891531
1.130395107,0.00760841369628906,-0.00626683235168457,0.00020870566368103,0.00985924463394899
1.135395107,0.00806427001953125,0.000442385673522949,-0.00386369228363037,0.00895300363535243
1.140395107,0.00575447082519531,0.00155878067016602,-0.0135528743267059,0.0148062194422206
1.145395107,-0.00255107879638672,-0.00111842155456543,-0.006390780210495,0.00697143754888078
1.150395107,-0.00395774841308594,0.00342535972595215,-0.00971394777297974,0.0110343845813728
1.155395107,-0.00748443603515625,0.0105459690093994,-0.00963366031646729,0.0161258071489347
1.160395107,-0.00546741485595703,0.00298154354095459,-0.0114665925502777,0.0130485620590099
1.165395107,-0.0109615325927734,0.000365018844604492,0.0010945200920105,0.0110220873599861
1.170395107,-0.00957107543945313,-0.00859355926513672,0.00328654050827026,0.0132761475746401
1.175395107,-0.00391769409179688,-0.00270736217498779,0.0242144167423248,0.0246782518650417
1.180395107,0.00585651397705078,0.00755703449249268,-0.000690281391143799,0.00958561498721259
1.185395107,-0.000825881958007813,-0.000297427177429199,0.0165982842445374,0.0166214795910861
1.190395107,-0.00239372253417969,-0.0112919807434082,0.0159459114074707,0.0196852946966777
1.195395107,0.00616931915283203,0.0023115873336792,0.0152852833271027,0.0166446334054112
1.200395107,0.00613880157470703,-0.00511431694030762,0.0111591517925262,0.0137247146151818
1.205395107,-0.00255298614501953,-0.00692176818847656,0.0180814266204834,0.0195286098261907
1.210395107,0.000220298767089844,-0.00571036338806152,0.0346510708332062,0.0351191328403531
1.215395107,-0.0116491317749023,0.00184047222137451,0.0143689513206482,0.0185891465958459
1.220395107,-0.00599384307861328,0.00226569175720215,0.030001312494278,0.0306779768786831
1.225395107,0.00523471832275391,-0.00350522994995117,0.0105381011962891,0.0122776418641301
1.230395107,0.00375461578369141,0.00322377681732178,0.00515195727348328,0.00714370634886704
1.235395107,0.00589084625244141,0.00330162048339844,0.0074632465839386,0.0100649300523635
1.240395107,-0.00333595275878906,0.0114926099777222,-0.00106307864189148,0.0120141084191777
1.245395107,-0.00331592559814453,0.0055232048034668,0.00483658909797669,0.0080556655824417
1.250395107,-0.00539875030517578,0.00611448287963867,0.00857594609260559,0.0118355505628723
1.255395107,0.00072479248046875,-0.00475180149078369,0.00594717264175415,0.0076468165911304
1.260395107,0.00249385833740234,-0.010239839553833,0.00443509221076965,0.011434320548826
1.265395107,-0.00310134887695313,-0.00215709209442139,0.00481551885604858,0.00612050921193271
1.270395107,-0.00389480590820313,0.00307226181030273,0.00273582339286804,0.00566507152034135
1.275395107,-0.00803375244140625,0.00443923473358154,0.016865462064743,0.0192013487538486
1.280395107,-0.00357151031494141,0.0055537223815918,-0.000716418027877808,0.00664174472651538
1.285395107,0.00153636932373047,0.00599920749664307,-0.0101639032363892,0.011901926326665
1.290395107,0.00533008575439453,0.0114709138870239,-0.000509262084960938,0.0126590294819112
1.295395107,-0.0169172286987305,-0.00617456436157227,0.0107394754886627,0.0209679327944348
1.300395107,0.000914573669433594,-0.00522327423095703,0.000117331743240356,0.00530403671052273
1.305395107,-0.00614547729492188,-0.00457334518432617,-0.00200077891349793,0.00791741710522425
1.310395107,-0.0056915283203125,-0.00930976867675781,0.0109916627407074,0.0154881224569383
1.315395107,-0.00453090667724609,0.0029979944229126,0.00459158420562744,0.00711334881719543
1.320395107,-0.00775432586669922,0.00299406051635742,-0.0184752941131592,0.0202590834094316
1.325395107,0.00648975372314453,-0.00650668144226074,-0.00366860628128052,0.00989507346234375
1.330395107,0.00493240356445313,-0.0072551965713501,-0.00137105584144592,0.00887954257447551
1.335395107,0.00176715850830078,-0.00477790832519531,0.0102997422218323,0.0114906895786817
1.340395107,0.00400543212890625,0.00306665897369385,0.00279384851455688,0.00576658246472754
1.345395107,-0.00626277923583984,0.00154125690460205,0.00516042113304138,0.0082600134911022
1.350395107,0.00430965423583984,0.0070490837097168,0.00956889986991882,0.0126422523902831
1.355395107,-0.00777626037597656,-0.00188565254211426,-0.000282734632492065,0.00800661288042425
1.360395107,-0.00593185424804688,-0.00565898418426514,-0.00154769420623779,0.00834304226130113
1.365395107,0.00353240966796875,-0.00514614582061768,0.0138151049613953,0.0151597447196115
1.370395107,0.00154590606689453,-0.00873112678527832,0.0211835205554962,0.0229644060152532
1.375395107,0.000352859497070313,0.00348734855651855,0.0144740343093872,0.0148924067554121
1.380395107,0.00590610504150391,0.0077977180480957,0.0045468807220459,0.0107870574217155
1.385395107,-0.00265216827392578,-0.00597643852233887,0.0131101906299591,0.0146502188488221
1.390395107,0.00748825073242188,0.00482285022735596,0.00789111852645874,0.0118997283559645
1.395395107,0.0111761093139648,0.000663042068481445,0.015822172164917,0.0193826256270543
1.400395107,0.0110788345336914,0.01508629322052,0.00146269798278809,0.0187743522697662
1.405395107,0.0143871307373047,0.0068591833114624,-0.000516802072525024,0.0159469436236135
1.410395107,-0.00549221038818359,-0.00138282775878906,0.00821459293365479,0.00997778154823007
1.415395107,0.000842094421386719,0.00259363651275635,0.00547933578491211,0.00612039165565832
1.420395107,-0.00810813903808594,-0.00190949440002441,0.0190488994121552,0.020790590572157
1.425395107,-0.00426292419433594,-0.00380492210388184,0.0134530663490295,0.0146162563296712
1.430395107,0.00146961212158203,-0.0120038986206055,0.00768753886222839,0.0143300940555164
1.435395107,-0.00205230712890625,0.00159895420074463,0.00628587603569031,0.00680300350018314
1.440395107,-0.00327777862548828,0.0120639801025391,0.000809848308563232,0.012527541774628
1.445395107,-0.00325775146484375,0.0120095014572144,0.00566908717155457,0.0136740491156135
1.450395107,-0.00560379028320313,0.00520646572113037,0.0100789666175842,0.0126528778908913
1.455395107,-0.0146665573120117,0.00207316875457764,0.0120507478713989,0.0190951945874219
1.460395107,-0.0144891738891602,0.00759768486022949,0.0119182467460632,0.0202411852599033
1.465395107,-0.00160026550292969,0.000299930572509766,0.0135470926761627,0.0136445787038199
1.470395107,-0.00259113311767578,-0.00193476676940918,0.00573524832725525,0.00658409953302731
1.475395107,-0.00715923309326172,-0.00285649299621582,0.00969955325126648,0.0123893302480496
1.480395107,-0.00411891937255859,-0.0101021528244019,0.00823366641998291,0.0136679278312685
1.485395107,-0.00754356384277344,-0.00448799133300781,0.00669848918914795,0.0110416112534487
1.490395107,-0.00167274475097656,-0.00472283363342285,0.00622698664665222,0.00799240859994625
1.495395107,-0.00908851623535156,-0.00278449058532715,0.00414881110191345,0.0103714583709035
1.500395107,0.00143146514892578,-0.0243357419967651,0.0130225718021393,0.0276381042647208
1.505395107,-0.00865554809570313,0.00675976276397705,-0.00341492891311646,0.0115010714693858
1.510395107,0.010869026184082,-0.00165653228759766,0.0104026198387146,0.0151358623447405
1.515395107,-0.00265026092529297,0.000561118125915527,-0.000929772853851318,0.00286412536093037
1.520395107,-0.00863170623779297,0.0120949745178223,0.00293087959289551,0.015145455303502
1.525395107,0.00699424743652344,0.00576889514923096,0.011982649564743,0.01502609526915
1.530395107,-0.00223255157470703,0.00749897956848145,-0.001161128282547,0.00790994310919867
1.535395107,-0.0114107131958008,0.00416672229766846,0.00655794143676758,0.0138048015643392
1.540395107,-0.00278377532958984,0.00932276248931885,0.0267852544784546,0.0284975992496465
1.545395107,-0.00444507598876953,0.00279617309570313,0.0196573436260223,0.020346705948595
1.550395107,-0.00115013122558594,-0.000288486480712891,0.0183206498622894,0.0183589824789455
1.555395107,0.00708389282226563,0.00201237201690674,0.00971272587776184,0.0121888564938767
1.560395107,0.00702953338623047,0.0122988224029541,0.0212693810462952,0.0255550766428128
1.565395107,0.00619316101074219,0.0131372213363647,-0.000152736902236938,0.0145246396274372
1.570395107,0.000589370727539063,-0.00836026668548584,0.00388914346694946,0.00923941847809915
1.575395107,-0.00735950469970703,-0.00662636756896973,0.00247600674629211,0.0102079217273541
1.580395107,-0.00239467620849609,-0.00503635406494141,0.0166102945804596,0.0175214503526573
1.585395107,-0.00576114654541016,-0.00250089168548584,0.00853985548019409,0.0106006792406348
1.590395107,0.002166748046875,0.00317513942718506,0.00688996911048889,0.00788973902129803
1.595395107,-0.00719928741455078,0.00901257991790772,-0.00158286094665527,0.0116431003100733
1.600395107,-0.00713825225830078,-0.00818753242492676,0.00573053956031799,0.0122812628082267
1.605395107,-0.00458145141601563,-0.00616335868835449,0.00434589385986328,0.00882402860601799
1.610395107,0.00431632995605469,0.00832414627075195,-0.00246837735176086,0.0096961333621756
1.615395107,0.0112829208374023,0.00850403308868408,-0.0189211368560791,0.0236142393763381
1.620395107,-0.00291919708251953,-0.0060727596282959,0.0120202600955963,0.0137799409968053
1.625395107,-0.00975990295410156,0.00217556953430176,0.0153878927230835,0.0183514590953741
1.630395107,0.0113382339477539,-0.00515532493591309,0.00961455702781677,0.015734440920795
1.635395107,0.00237178802490234,-0.00841164588928223,0.00129219889640808,0.00883464447443286
1.640395107,-0.0146522521972656,0.000584959983825684,0.0104297399520874,0.0179947255634289
1.645395107,-0.0128297805786133,0.0116558074951172,0.0155597925186157,0.0232930947124027
1.650395107,0.00286483764648438,-0.000780701637268066,0.0110709965229034,0.0114622752452245
1.655395107,0.00516319274902344,0.0115379095077515,0.0186685025691986,0.0225453965001462
1.660395107,0.00156593322753906,0.00777697563171387,0.00901314616203308,0.0120070937610878
1.665395107,-0.000802040100097656,0.00235295295715332,0.00564393401145935,0.00616714253657631
1.670395107,-0.0069427490234375,-0.00174450874328613,0.0130544304847717,0.0148883588766385
1.675395107,0.00604820251464844,-0.0146317481994629,0.00118148326873779,0.0158765459639366
1.680395107,0.00693893432617188,-0.0143539905548096,-0.00422114133834839,0.0164925403934264
1.685395107,0.00251007080078125,0.00329375267028809,0.00689160823822022,0.00804011978686072
1.690395107,0.00646495819091797,-0.000676035881042481,0.0159648060798645,0.0172373937151314
1.695395107,0.00354766845703125,-0.00620424747467041,0.0102471113204956,0.0124932753360597
1.700395107,0.00846672058105469,-0.00972676277160645,0.00794306397438049,0.0151455451111495
1.705395107,-0.00581455230712891,-0.0108115673065186,0.00476685166358948,0.0131689741794259
1.710395107,0.00284671783447266,-0.0140223503112793,0.0230632722377777,0.0271411981495878
1.715395107,0.001983642578125,-0.00488221645355225,0.012391597032547,0.0134656062765148
1.720395107,-0.0119075775146484,-0.00895357131958008,-0.00274407863616943,0.015148822040134
1.725395107,-0.000237464904785156,-0.00086820125579834,0.000106155872344971,0.000906328897700917
1.730395107,0.00716876983642578,-0.00823044776916504,-0.00708049535751343,0.0130101862383431
1.735395107,-0.00191402435302734,-0.00120842456817627,0.0181531608104706,0.0182937428256702
1.740395107,-0.00598335266113281,-0.00965404510498047,0.0125548541545868,0.0169300165032237
1.745395107,-0.000341415405273438,-0.00398862361907959,0.00417524576187134,0.00578432018699364
1.750395107,-0.000517845153808594,0.00381672382354736,0.0179494917392731,0.0183580989769308
1.755395107,-0.00480461120605469,0.00594246387481689,-0.00179323554039001,0.0078493859280945
1.760395107,-0.00417709350585938,0.00411403179168701,-0.00875130295753479,0.0105336921919269
1.765395107,-0.00225734710693359,-0.000552892684936523,0.00979620218276978,0.0100681122107345
1.770395107,-0.00224208831787109,0.000629067420959473,-0.00330236554145813,0.00404082961960247
1.775395107,-0.00222682952880859,0.00579380989074707,-0.00657087564468384,0.0090389938344039
1.780395107,-0.00220680236816406,0.00379276275634766,-0.0045892596244812,0.00634951414826093
1.785395107,0.000905036926269531,0.00247716903686523,-0.000406473875045776,0.00266846009642452
1.790395107,0.00644969940185547,-0.000878810882568359,-0.00485265254974365,0.00811906199693961
1.795395107,-0.00688552856445313,0.0179339647293091,-0.0275912582874298,0.0336201595535724
1.800395107,-0.00308704376220703,-0.00580406188964844,-0.00223726034164429,0.00694422835489625
1.805395107,0.00893306732177734,-0.00414609909057617,-0.00715199112892151,0.0121713107984496
1.810395107,-0.00220870971679688,-0.00333833694458008,0.00549980998039246,0.00680226447508811
1.815395107,-0.000655174255371094,-0.00245773792266846,0.00865793228149414,0.00902383069391055
1.820395107,-0.00219535827636719,-0.000856399536132813,0.0067082941532135,0.00711014968711214
1.825395107,-0.00697994232177734,0.00393640995025635,0.00994282960891724,0.0127700735606251
1.830395107,-0.00985813140869141,0.00308036804199219,0.0154124796390533,0.0185530577202085
1.835395107,-0.00202560424804688,-0.000817656517028809,0.0158404409885407,0.0159903472589242
1.840395107,0.000473976135253906,0.00414943695068359,0.00463816523551941,0.00624139865226292
1.845395107,-0.00714874267578125,-0.00122261047363281,0.000160008668899536,0.00725430223997427
1.850395107,-0.0032501220703125,-0.00149989128112793,0.0124901831150055,0.0129929843212983
1.855395107,-0.00652027130126953,-0.000857353210449219,0.00993859767913818,0.0119174123112947
1.860395107,-0.000912666320800781,0.000130414962768555,0.0190662145614624,0.0190884914432587
1.865395107,0.00286865234375,0.000356316566467285,0.0154280662536621,0.0156965396215927
1.870395107,0.00284671783447266,-0.000381112098693848,0.0042475163936615,0.00512742083071974
1.875395107,0.0028228759765625,0.00397372245788574,-0.00680595636367798,0.00837138823467458
1.880395107,0.0153923034667969,0.00391697883605957,-0.0135505497455597,0.0208778142443838
1.885395107,-0.00156211853027344,0.0167819261550903,0.0195499360561371,0.0258122695549341
1.890395107,0.00527000427246094,-0.00473201274871826,0.0186185836791992,0.0199202547148658
1.895395107,-0.00588226318359375,-0.00288760662078857,-0.00360620021820068,0.00747957031996058
1.900395107,-0.011566162109375,-0.000329136848449707,-0.00121510028839111,0.0116344705816895
1.905395107,-0.0009918212890625,0.00382339954376221,-0.00541761517524719,0.00670467357354162
1.910395107,-0.0144338607788086,-0.000538945198059082,0.00815361738204956,0.0165863882542705
1.915395107,-0.00624656677246094,0.00373804569244385,0.00552013516426086,0.00913588935316756
1.920395107,-0.00181102752685547,0.00253391265869141,0.00170516967773438,0.00355079395273361
1.925395107,-0.00179195404052734,-0.00499022006988525,-0.0174149572849274,0.0182042339268944
1.930395107,-0.00734424591064453,-0.00767266750335693,0.00775903463363648,0.0131533415168564
1.935395107,0.00317096710205078,0.0087507963180542,-0.00930759310722351,0.0131629312089669
1.940395107,0.0121555328369141,-0.00873267650604248,0.00352337956428528,0.0153763071334604
1.945395107,0.00244808197021484,-0.000421643257141113,-0.00429913401603699,0.00496522322328311
1.950395107,-0.00185966491699219,0.0000261068344116211,0.000812292098999023,0.00202949590400937
1.955395107,-0.00392055511474609,-0.00416445732116699,0.0188577175140381,0.0197060134737303
1.960395107,-0.00655746459960938,0.00674104690551758,0.0124628841876984,0.0156129925905798
1.965395107,-0.00281238555908203,0.00113034248352051,0.00119355320930481,0.00325756902097657
1.970395107,0.00726509094238281,0.00348973274230957,0.00454381108283997,0.00925235106177774
1.975395107,-0.00235366821289063,-0.00825405120849609,0.0053037703037262,0.0100895537484834
1.980395107,-0.00515079498291016,0.0058128833770752,0.0122156739234924,0.0144755998672436
1.985395107,-0.00173282623291016,-0.00754678249359131,0.0144758522510529,0.0164166656527247
1.990395107,-0.0106782913208008,-0.00327956676483154,0.00922751426696777,0.0144889089735553
1.995395107,-0.00829029083251953,-0.0000289678573608398,0.0129222869873047,0.0153530212729215
2.000395107,-0.0109167098999023,-0.00560140609741211,0.00456300377845764,0.0130908864783471
2.005395107,-0.00556278228759766,0.011988639831543,0.00428920984268189,0.0138949398294569
2.010395107,0.00151157379150391,0.00228214263916016,0.0086396336555481,0.00906290792487233
2.015395107,0.00804996490478516,-0.00557291507720947,0.0115891396999359,0.0151712714170795
2.020395107,-0.00127696990966797,0.0111011266708374,0.0133782029151917,0.0174310636150585
2.025395107,-0.00624465942382813,0.00320541858673096,0.0143359005451202,0.0159620964812065
2.030395107,0.00320816040039063,-0.00106942653656006,0.0134044289588928,0.0138244233870978
2.035395107,0.0175056457519531,0.0101230144500732,-0.00635233521461487,0.0211961132622965
2.040395107,0.00951290130615234,-0.00429725646972656,-0.0117577016353607,0.0157227622310256
2.045395107,-0.0016937255859375,0.00369942188262939,-0.000479370355606079,0.004096855448264
2.050395107,-0.00331878662109375,0.00201809406280518,0.00427877902984619,0.00577884056441531
2.055395107,0.00556373596191406,0.0108836889266968,0.00763067603111267,0.0144096168997928
2.060395107,0.0124711990356445,0.00816500186920166,0.0137041211128235,0.0202484813352918
2.065395107,0.00508308410644531,-0.00428521633148193,-0.000397533178329468,0.00666024441508487
2.070395107,-0.00328159332275391,0.0068281888961792,-0.000302642583847046,0.00758186064705792
2.075395107,-0.00206279754638672,0.00794100761413574,-0.000210195779800415,0.00820724788896904
2.080395107,-0.00658893585205078,0.00659120082855225,0.00639736652374268,0.011304171905268
2.085395107,0.018010139465332,0.012061595916748,0.00117266178131104,0.0217076566048243
2.090395107,-0.00684928894042969,0.00753104686737061,0.009471595287323,0.01390469500546
2.095395107,-0.0113868713378906,-0.00174391269683838,0.0120600759983063,0.0166777547483105
2.100395107,-0.00421524047851563,0.0000451803207397461,0.00439861416816711,0.00609246256890424
2.105395107,0.012883186340332,0.000473737716674805,-0.00339540839195251,0.0133315308892887
2.110395107,0.0103511810302734,-0.0118218660354614,0.00364023447036743,0.0161293140672857
2.115395107,0.0117311477661133,-0.011643648147583,0.000649809837341309,0.0165413609754398
2.120395107,0.00345325469970703,-0.00127482414245605,0.00452950596809387,0.00583665734219815
2.125395107,0.0147743225097656,0.00213980674743652,0.00900113582611084,0.0174321491703989
2.130395107,0.00541400909423828,-0.00155830383300781,0.00706443190574646,0.00903581780800112
2.135395107,0.0051727294921875,-0.00954687595367432,0.00679132342338562,0.0128071091474703
2.140395107,-0.00673484802246094,-0.012162446975708,-0.00510892271995544,0.014811630081832
2.145395107,0.00115203857421875,-0.0107712745666504,0.0113711357116699,0.0157051035029978
2.150395107,-0.00223636627197266,-0.00520014762878418,0.0036863386631012,0.00675514338875507
2.155395107,-0.00453662872314453,0.00133407115936279,-0.000728845596313477,0.00478455451773403
2.160395107,-0.00969982147216797,-0.00978934764862061,-0.00271794199943543,0.014046532408028
2.165395107,-0.00129222869873047,-0.0125151872634888,-0.00550141930580139,0.0137319110697768
2.170395107,0.00264930725097656,-0.0104697942733765,0.00896772742271423,0.014037647814538
2.175395107,0.00701808929443359,-0.00162315368652344,0.00911921262741089,0.0116210259520684
2.180395107,-0.00601291656494141,0.000035405158996582,0.0082116425037384,0.0101777940513371
2.185395107,0.00262260437011719,0.00862288475036621,0.00637319684028626,0.0110385611863726
2.190395107,0.000532150268554688,0.000285506248474121,0.0133302807807922,0.0133439530657523
2.195395107,0.00072479248046875,-0.001808762550354,0.00175750255584717,0.00262407342449035
2.200395107,-0.00478363037109375,-0.00357913970947266,-0.00206279754638672,0.00632048212595792
2.205395107,0.00660514831542969,0.0077815055847168,-0.00543799996376038,0.0115651051460702
2.210395107,-0.00747776031494141,0.0126864910125732,-0.00253695249557495,0.0149432286171569
2.215395107,-0.00479984283447266,0.00566470623016357,-0.013784259557724,0.0156567301651526
2.220395107,0.00782585144042969,0.00100946426391602,-0.00816205143928528,0.0113526231579022
2.225395107,0.00260353088378906,0.00355029106140137,0.0033898651599884,0.00555644899971314
2.230395107,0.00258636474609375,0.00354993343353272,0.00486427545547485,0.00655381459068572
2.235395107,-0.0157966613769531,-0.0102341175079346,-0.00534933805465698,0.0195675008482774
2.240395107,0.00957870483398438,-0.0026087760925293,0.0141920149326324,0.0173196589702456
2.245395107,-0.00686836242675781,0.0106000900268555,-0.00460430979728699,0.0134438082295208
2.250395107,-0.00680828094482422,-0.00361728668212891,0.00859799981117249,0.0115482922164832
2.255395107,-0.00674915313720703,-0.00415432453155518,0.00549021363258362,0.00964115792394045
2.260395107,0.00495815277099609,-0.00576114654541016,-0.0000213384628295898,0.00760095676531735
2.265395107,0.00750732421875,0.00369060039520264,-0.000895500183105469,0.00841322582488085
2.270395107,-0.0035552978515625,0.0109932422637939,0.00713607668876648,0.0135799524591122
2.275395107,-0.00838565826416016,0.000516414642333984,0.00537469983100891,0.00997363258194033
2.280395107,0.000425338745117188,0.00135922431945801,0.00622478127479553,0.00638563275782041
2.285395107,0.00597763061523438,0.00217723846435547,0.000665634870529175,0.00639652287447803
2.290395107,-0.00844192504882813,-0.00426638126373291,-0.0120993554592133,0.0153578159302017
2.295395107,0.0120334625244141,0.00822651386260986,0.0133132040500641,0.019741356405699
2.300395107,-0.0128574371337891,-0.00938045978546143,0.00462812185287476,0.0165748673394707
2.305395107,-0.00215721130371094,0.0113343000411987,0.00513884425163269,0.0126304251027158
2.310395107,-0.0113887786865234,0.00633656978607178,-0.00109100341796875,0.0130784817575431
2.315395107,-0.00146865844726563,0.00654458999633789,-0.00110292434692383,0.00679743024752208
2.320395107,-0.00521755218505859,-0.00464475154876709,-0.00928276777267456,0.0116175016795776
2.325395107,-0.00620841979980469,0.00829112529754639,-0.00120574235916138,0.010427897666687
2.330395107,0.00209808349609375,0.0044407844543457,-0.00584018230438232,0.00763087480404179
2.335395107,0.00181388854980469,-0.00721681118011475,-0.00405123829841614,0.00847260804186618
2.340395107,0.0000619888305664063,-0.0037682056427002,0.0040912926197052,0.00556254363406228
2.345395107,0.00365829467773438,-0.00251471996307373,-0.00506153702735901,0.00673246563460576
2.350395107,0.0119237899780273,0.00308680534362793,-0.00209951400756836,0.0124945225494026
2.355395107,0.00739288330078125,0.00310444831848145,-0.0144691169261932,0.0165422993409303
2.360395107,0.000722885131835938,-0.00487565994262695,-0.00186756253242493,0.00527090244668633
2.365395107,-0.00108432769775391,-0.00111138820648193,-0.00364798307418823,0.00396468546182257
2.370395107,0.00491523742675781,-0.00107145309448242,0.00197228789329529,0.00540347020248246
2.375395107,-0.00414943695068359,-0.00450766086578369,-0.00293445587158203,0.00679322197126506
2.380395107,0.00619792938232422,-0.00570964813232422,-0.0054137110710144,0.0100161209050039
2.385395107,-0.0151586532592773,0.0173931121826172,0.0180388391017914,0.0292865982348996
2.390395107,-0.00528717041015625,0.00498580932617188,0.00885611772537231,0.0114561462433328
2.395395107,-0.00818252563476563,-0.00191903114318848,0.00226110219955444,0.00870338953793026
2.400395107,0.00579071044921875,0.00363993644714355,0.00788456201553345,0.0104378054696726
2.405395107,0.000565528869628906,0.00000619888305664063,0.00747528672218323,0.00749665077934032
2.410395107,-0.00616264343261719,-0.00113964080810547,-0.000147372484207153,0.00626886543946992
2.415395107,0.00390529632568359,-0.00588977336883545,0.00820642709732056,0.0108298760579832
2.420395107,0.0124750137329102,-0.0058358907699585,0.00262123346328735,0.0140197879293605
2.425395107,0.00618553161621094,-0.00169467926025391,0.00120294094085693,0.00652532038121268
2.430395107,0.00667572021484375,-0.00207674503326416,-0.00183194875717163,0.00722731945945131
2.435395107,0.00490570068359375,0.00156307220458984,0.00916483998298645,0.0105120590669726
2.440395107,-0.00176143646240234,0.00367212295532227,0.0044395923614502,0.00602470959847295
2.445395107,-0.000918388366699219,-0.00218033790588379,0.018109530210495,0.0182634168495589
2.450395107,0.00748443603515625,-0.00518202781677246,0.0112597942352295,0.0144794047280217
2.455395107,0.00309658050537109,-0.000234007835388184,0.000737786293029785,0.00319184885410478
2.460395107,0.00383567810058594,-0.00758981704711914,0.00851935148239136,0.0120373210882064
2.465395107,0.00358295440673828,0.00183260440826416,-0.00655966997146606,0.00769579569196767
2.470395107,0.00258541107177734,-0.00537705421447754,0.00798135995864868,0.00996489684969293
2.475395107,-0.00346946716308594,0.00923717021942139,-0.00153130292892456,0.00998535951873691
2.480395107,-0.00728607177734375,0.00745344161987305,-0.00122213363647461,0.0104944863881404
2.485395107,0.00265216827392578,-0.00352978706359863,0.00870472192764282,0.00976040865461854
2.490395107,0.00262546539306641,-0.00717759132385254,-0.00360170006752014,0.00844885371626277
2.495395107,0.00260639190673828,-0.0065687894821167,0.00912824273109436,0.011544136580518
2.500395107,0.00726318359375,-0.000986456871032715,-0.00529342889785767,0.00904142259667147
2.505395107,-0.00548744201660156,0.0103147029876709,0.00251597166061401,0.0119513694197127
2.510395107,0.00566387176513672,-0.00422191619873047,-0.00547122955322266,0.00893523209463932
2.515395107,0.00964736938476563,0.00611782073974609,-0.00304591655731201,0.0118227354839685
2.520395107,0.00084686279296875,-0.00574958324432373,-0.0100510716438293,0.0116102939352504
2.525395107,-0.00232219696044922,-0.00327432155609131,0.00123348832130432,0.00419943732118935
2.530395107,0.00243949890136719,0.0132724046707153,-0.00512874126434326,0.0144364769798443
2.535395107,0.00326156616210938,0.00977575778961182,0.00267660617828369,0.0106474163450388
2.540395107,0.00878810882568359,-0.00756406784057617,-0.00181087851524353,0.0117356405886456
2.545395107,0.00197124481201172,-0.00566232204437256,0.00438734889030457,0.00742943654177941
2.550395107,-0.00391578674316406,0.00225293636322022,0.00100451707839966,0.00462797608414909
2.555395107,-0.00240135192871094,-0.00440919399261475,-0.00452795624732971,0.00676090752249769
2.560395107,0.00642681121826172,-0.00528788566589356,-0.000809997320175171,0.00836192160387959
2.565395107,-0.0138387680053711,0.00574100017547607,-0.0127723217010498,0.0196876302422716
2.570395107,-0.00406742095947266,-0.000425457954406738,0.00545501708984375,0.00681778110406992
2.575395107,-0.00446510314941406,0.00602793693542481,0.00804334878921509,0.0109985739792636
2.580395107,-0.00223827362060547,0.000452637672424316,0.00499060750007629,0.00548825226124071
2.585395107,0.00613498687744141,0.00744736194610596,0.00488772988319397,0.0108162455294687
2.590395107,-0.0155611038208008,-0.000282168388366699,-0.00498741865158081,0.0163432529175581
2.595395107,0.000514984130859375,0.0121973752975464,0.00270655751228333,0.0125046641846764
2.600395107,-0.00503921508789063,0.00839066505432129,0.0174670815467834,0.020022384636147
2.605395107,-0.00742530822753906,0.00297379493713379,0.00978946685791016,0.0126416897590553
2.610395107,-0.00113391876220703,0.00226902961730957,0.00277504324913025,0.0037596718205259
2.615395107,-0.0101156234741211,-0.0135911703109741,0.0126237571239471,0.0211282983843115
2.620395107,-0.00602531433105469,0.00229239463806152,0.0175752639770508,0.01872029352942
2.625395107,0.002838134765625,-0.01539146900177,0.00635853409767151,0.0168932910604047
2.630395107,-0.00304412841796875,-0.0113848447799683,0.00106474757194519,0.0118327974664075
2.635395107,-0.00312519073486328,-0.00848639011383057,-0.007200688123703,0.0115600840718497
2.640395107,-0.000704765319824219,-0.00680422782897949,-0.0043388307094574,0.00810059642433917
2.645395107,-0.00187873840332031,-0.00996100902557373,0.00360584259033203,0.0107588781748807
2.650395107,0.00200939178466797,0.00700509548187256,0.00786355137825012,0.0107212153384223
2.655395107,-0.00538444519042969,-0.00780212879180908,-0.00323927402496338,0.0100179019710476
2.660395107,-0.00183296203613281,-0.0068202018737793,-0.0080617368221283,0.0107175792049448
2.665395107,0.00962066650390625,-0.000505208969116211,-0.00520387291908264,0.0109495549425454
2.670395107,-0.00858211517333984,-0.00203871726989746,-0.00506550073623657,0.0101719401622238
2.675395107,-0.00711250305175781,0.00819361209869385,-0.00047418475151062,0.0108603789097661
2.680395107,-0.00650787353515625,0.00422334671020508,-0.010200023651123,0.0128152080696201
2.685395107,-0.00510978698730469,0.00824832916259766,-0.0102001428604126,0.0140779178646209
2.690395107,-0.00812053680419922,0.0119216442108154,0.00227108597755432,0.0146022789384078
2.695395107,-0.0128774642944336,0.00405645370483398,0.0108408331871033,0.0173149521369386
2.700395107,0.000310897827148438,0.00775861740112305,0.00304725766181946,0.00834137762563549
2.705395107,0.00324058532714844,0.0223743915557861,0.0138299465179443,0.0265024944381348
2.710395107,-0.00783729553222656,-0.0111427307128906,0.00944066047668457,0.0165743693465389
2.715395107,0.00988960266113281,-0.0108300447463989,0.0121619403362274,0.0190527400325004
2.720395107,0.00321006774902344,-0.00305569171905518,0.0253357887268066,0.0257204972200112
2.725395107,-0.00598430633544922,-0.0085529088973999,0.0263609886169434,0.0283525288781501
2.730395107,-0.00325870513916016,0.00140202045440674,0.0148883163928986,0.0153051228532676
2.735395107,0.00788497924804688,-0.0239895582199097,0.0128610730171204,0.0283386485295306
2.740395107,-0.00880336761474609,-0.0106868743896484,0.00641638040542603,0.0152603572398427
2.745395107,0.00330066680908203,-0.0161501169204712,-0.0017368495464325,0.0165752020885541
2.750395107,-0.00143051147460938,-0.0168941020965576,-0.00176349282264709,0.0170460246293213
2.755395107,-0.00305080413818359,-0.00806891918182373,0.00770604610443115,0.0115671089394014
2.760395107,0.0104560852050781,-0.00882017612457275,0.00847950577735901,0.0160943233132866
2.765395107,0.0126466751098633,-0.0141453742980957,0.0124556422233582,0.0226974233904196
2.770395107,0.00310611724853516,0.00791549682617188,0.0129768848419189,0.0155145929552538
2.775395107,0.00143527984619141,-0.00322639942169189,-0.00819766521453857,0.00892588351004161
2.780395107,0.00567436218261719,0.000433921813964844,-0.011070728302002,0.0124477989804181
2.785395107,0.00272560119628906,-0.000185847282409668,-0.00104117393493652,0.00292360808871207
2.790395107,-0.00582790374755859,0.0116515159606934,0.0117215812206268,0.0175247753932783
2.795395107,-0.00659656524658203,0.00500965118408203,0.0269899964332581,0.0282324491588291
2.800395107,-0.00929546356201172,0.0132403373718262,0.0130707025527954,0.0207979672510589
2.805395107,-0.00683403015136719,0.0110689401626587,0.00785684585571289,0.01519721787811
2.810395107,-0.0132379531860352,-0.00133657455444336,0.00909119844436646,0.0161145811379041
2.815395107,-0.0075836181640625,0.00563514232635498,-0.00219753384590149,0.00970027053748805
2.820395107,-0.00197219848632813,0.00971865653991699,-0.00212529301643372,0.0101419289198874
2.825395107,-0.00589752197265625,-0.00519204139709473,-0.000463396310806274,0.00787100980992766
2.830395107,0.00177860260009766,-0.00410556793212891,0.00650531053543091,0.00789545314828653
2.835395107,0.00735950469970703,-0.000389218330383301,-0.000965476036071777,0.00743276155341641
2.840395107,-0.00406551361083984,-0.000413894653320313,-0.0115403234958649,0.0122424987683553
2.845395107,-0.00612258911132813,0.00307118892669678,-0.0025533139705658,0.00731011019629014
2.850395107,0.00246524810791016,-0.00417149066925049,-0.00465774536132813,0.00672111408087768
2.855395107,0.0119142532348633,-0.00949966907501221,-0.00527933239936829,0.0161265152237616
2.860395107,-0.00257301330566406,-0.00614428520202637,-0.00311818718910217,0.00735497990896273
2.865395107,-0.00615692138671875,-0.00967621803283691,-0.0123234987258911,0.016834651681228
2.870395107,-0.00334739685058594,-0.00406777858734131,-0.00411468744277954,0.00668450006079084
2.875395107,-0.00132369995117188,-0.00362884998321533,0.000252366065979004,0.00387097176335246
2.880395107,0.00306129455566406,-0.0134975910186768,-0.00981628894805908,0.0169680881768038
2.885395107,0.00384235382080078,-0.00468385219573975,-0.0140453577041626,0.0152962161109746
2.890395107,0.00318431854248047,-0.000970721244812012,0.003898024559021,0.00512608815548905
2.895395107,-0.00679302215576172,0.00139963626861572,0.017838716506958,0.0191395908605359
2.900395107,0.00437068939208984,-0.0037379264831543,0.014751523733139,0.0158329552707306
2.905395107,0.0117807388305664,0.0037156343460083,0.00534287095069885,0.0134587523932597
2.910395107,0.0172338485717773,0.00474607944488525,0.00304952263832092,0.0181336812317231
2.915395107,0.00260448455810547,-0.00481307506561279,0.00717845559120178,0.00902658606979901
2.920395107,-0.00163364410400391,0.00056767463684082,0.00688496232032776,0.00709885580246508
2.925395107,0.00481224060058594,0.0120934247970581,0.00850591063499451,0.0155486043955893
2.930395107,0.00373172760009766,0.000570893287658691,0.012774258852005,0.0133204128781826
2.935395107,-0.0054473876953125,0.00642943382263184,0.00664538145065308,0.0107318566244303
2.940395107,-0.00182723999023438,0.0047529935836792,0.00268462300300598,0.00575647067713162
2.945395107,0.00785923004150391,0.0121724605560303,-0.00736197829246521,0.0162522311456649
2.950395107,0.00922966003417969,0.00405550003051758,-0.00844606757164002,0.0131517969216671
2.955395107,0.00573539733886719,0.00725638866424561,0.000550210475921631,0.00926567270353809
2.960395107,0.00123023986816406,-0.00638496875762939,-0.00297406315803528,0.00715027047300356
2.965395107,0.00291728973388672,-0.00197303295135498,-0.0101536810398102,0.0107471241305186
2.970395107,0.00289249420166016,-0.000157833099365234,-0.0155202150344849,0.0157882395697096
2.975395107,-0.00115394592285156,0.00385534763336182,-0.00404176115989685,0.00570360673965036
2.980395107,-0.00173187255859375,-0.00169849395751953,-0.0154057145118713,0.0155955219183015
2.985395107,-0.00900459289550781,0.00216269493103027,0.001453697681427,0.0093740695286263
2.990395107,0.00292587280273438,0.00623142719268799,0.00553849339485169,0.00883551501613617
2.995395107,0.00373172760009766,-0.00329983234405518,0.0118561983108521,0.0128601758450829
3.000395107,-0.00657939910888672,0.00466835498809814,-0.0103523433208466,0.0131245206831182
3.005395107,-0.00569248199462891,0.011628270149231,-0.000250488519668579,0.012949276521148
3.010395107,-0.00172138214111328,-0.00019383430480957,-0.00841960310935974,0.00859595513788927
3.015395107,0.00317859649658203,-0.00264489650726318,0.00607514381408691,0.00734889961722536
3.020395107,0.00450611114501953,-0.00170350074768066,0.00554361939430237,0.00734429495850372
3.025395107,0.00297069549560547,-0.000221967697143555,0.0125172734260559,0.0128668735677643
3.030395107,0.00283050537109375,0.00918221473693848,0.0171061754226685,0.0196200424495501
3.035395107,-0.0018157958984375,0.00356125831604004,-0.00895980000495911,0.00981110043100222
3.040395107,-0.00180435180664063,0.00489139556884766,-0.00296959280967712,0.00599999312569238
3.045395107,0.000754356384277344,0.00626969337463379,0.00421151518821716,0.00759045247314089
3.050395107,0.00629901885986328,0.00293707847595215,0.00626680254936218,0.00935825212117664
3.055395107,0.00348186492919922,-0.012347936630249,0.00340107083320618,0.0132726110928603
3.060395107,0.0216331481933594,-0.00916337966918945,-0.014759361743927,0.0277452588166998
3.065395107,0.0138473510742188,0.000412940979003906,0.00346919894218445,0.0142812812214192
3.070395107,0.00441551208496094,-0.00893187522888184,0.00163373351097107,0.0100967433988202
3.075395107,-0.00856304168701172,-0.0000970363616943359,-0.00919085741043091,0.0125621239815512
3.080395107,-0.0107583999633789,0.00682806968688965,0.00184249877929688,0.0128748012478936
3.085395107,-0.00677871704101563,-0.00338685512542725,0.00406309962272644,0.0085982888359829
3.090395107,-0.0114641189575195,0.0176533460617065,-0.00529101490974426,0.0217039510094744
3.095395107,-0.00911140441894531,0.000952243804931641,0.00249314308166504,0.00949422040903102
3.100395107,-0.00566577911376953,0.000715732574462891,0.00273379683494568,0.00633142726554869
3.105395107,-0.00850105285644531,0.00329184532165527,-0.00262901186943054,0.00948766824353526
3.110395107,-0.0135231018066406,-0.00845825672149658,-0.01421719789505,0.0213669161374899
3.115395107,-0.00708770751953125,-0.00132560729980469,0.00202643871307373,0.00748994569096193
3.120395107,0.00282764434814453,0.0050358772277832,0.00469362735748291,0.00744216163381387
3.125395107,-0.00151157379150391,0.00565910339355469,0.0113008618354797,0.0127286992568253
3.130395107,0.000551223754882813,-0.000818133354187012,-0.00254431366920471,0.00272886823802146
3.135395107,-0.00809669494628906,0.00180506706237793,0.014001876115799,0.0162747433440631
3.140395107,0.00262260437011719,-0.00738728046417236,0.0175232887268066,0.019196760511647
3.145395107,0.0125503540039063,-0.018415093421936,0.0293708741664886,0.0368683509349918
3.150395107,0.0037689208984375,-0.0125635862350464,0.021237313747406,0.0249614093959032
3.155395107,0.00797271728515625,-0.00246000289916992,0.0265807211399078,0.0278594790240323
3.160395107,0.00577545166015625,-0.0157439708709717,0.0128080248832703,0.0211015156345528
3.165395107,0.00311565399169922,-0.0147004127502441,0.0163871049880981,0.0222339075448847
3.170395107,-0.000661849975585938,-0.00549471378326416,0.0307939648628235,0.0312873488318039
3.175395107,0.00290107727050781,-0.0090869665145874,0.0095912516117096,0.0135270587063785
3.180395107,-0.00519847869873047,-0.00330793857574463,0.0104028880596161,0.0120907699665057
3.185395107,0.00308036804199219,-0.000865459442138672,0.017038106918335,0.0173359388174026
3.190395107,0.00973415374755859,-0.0120308399200439,0.0015796422958374,0.0155560318894515
3.195395107,0.011082649230957,-0.00950241088867188,-0.00981548428535461,0.0175916076135647
3.200395107,-0.0001373291015625,0.00975239276885986,-0.0299301743507385,0.0314792528606677
3.205395107,-0.00195121765136719,0.0140880346298218,-0.00959837436676025,0.0171583437586075
3.210395107,0.003509521484375,0.0198487043380737,-0.0356740355491638,0.0409746826383385
3.215395107,0.0090179443359375,0.00719296932220459,-0.0223011672496796,0.0251078511309595
3.220395107,0.00281620025634766,0.0209712982177734,-0.0120074152946472,0.024329084546706
3.225395107,0.00884914398193359,0.0184770822525024,-0.0145937502384186,0.0251532793846066
3.230395107,0.00494384765625,0.0223640203475952,-0.0117901861667633,0.0257604255710731
3.235395107,-0.00702381134033203,0.00886356830596924,-0.010575920343399,0.0154837611699833
3.240395107,-0.0242595672607422,0.0239198207855225,-0.00700488686561585,0.0347815018377595
3.245395107,-0.0145692825317383,0.0245089530944824,0.0121578276157379,0.0309962182791894
3.250395107,-0.00888442993164063,0.0157196521759033,0.0134358406066895,0.0225069405417524
3.255395107,-0.012969970703125,0.0166076421737671,0.0151612758636475,0.0259595493879502
3.260395107,-0.0118083953857422,0.00990080833435059,-0.00241240859031677,0.0155975614269089
3.265395107,-0.0389242172241211,0.012584924697876,-0.00178378820419312,0.0409470013129068
3.270395107,-0.0163364410400391,-0.0116416215896606,-0.0169564783573151,0.0262664961000439
3.275395107,-0.0148324966430664,-0.0188559293746948,-0.0193899273872376,0.0308466904761662
3.280395107,0.00449466705322266,-0.0172126293182373,-0.0141897201538086,0.0227557640612169
3.285395107,0.00997161865234375,-0.0205546617507935,-0.0157204270362854,0.0277319152681612
3.290395107,0.0167903900146484,-0.0122427940368652,-0.013367772102356,0.0247083090002864
3.295395107,0.0129003524780273,-0.0239969491958618,-0.0261053144931793,0.0377327458522954
3.300395107,0.00928878784179688,-0.0122723579406738,0.0029054582118988,0.0156631426098029
3.305395107,0.0166053771972656,-0.0251132249832153,0.0136003494262695,0.033036073093479
3.310395107,0.0223188400268555,-0.0283796787261963,0.0190463066101074,0.0408203206777299
3.315395107,0.0152511596679688,-0.0205119848251343,0.0325244069099426,0.0413663684353357
3.320395107,0.0125207901000977,-0.0275158882141113,0.0331589281558991,0.0448710241179121
3.325395107,0.0225362777709961,0.00115048885345459,0.0423937439918518,0.0480253783953868
3.330395107,0.0256319046020508,0.0155916213989258,0.0496781170368195,0.0580345457783552
3.335395107,0.00536441802978516,0.0152682065963745,0.047462671995163,0.0501457909139769
3.340395107,-0.00842952728271484,0.00133466720581055,0.0416171252727509,0.0424832129520372
3.345395107,-0.012873649597168,0.0164684057235718,0.049402266740799,0.053642550276398
3.350395107,-0.00722122192382813,0.0322278738021851,0.0322001874446869,0.0461262828261254
3.355395107,-0.00760841369628906,0.0188132524490356,0.0276890695095062,0.0343294479563434
3.360395107,-0.0150127410888672,0.0229241847991943,0.00412648916244507,0.0277115238938018
3.365395107,-0.00529670715332031,0.01662278175354,0.00128874182701111,0.01749379419653
3.370395107,0.00289344787597656,0.0111510753631592,-0.00354328751564026,0.0120529419140864
3.375395107,-0.00441741943359375,0.0166594982147217,-0.00114166736602783,0.0172729812016704
3.380395107,-0.00214576721191406,0.0265802145004272,-0.0374873578548431,0.0460045010705857
3.385395107,-0.0160684585571289,0.0133476257324219,-0.0311939120292664,0.0375421712316242
3.390395107,-0.0146141052246094,0.0123592615127563,-0.0458173751831055,0.0496543581705182
3.395395107,-0.0174455642700195,-0.00129556655883789,-0.0453248023986816,0.0485835766271618
3.400395107,-0.0163602828979492,-0.00401902198791504,-0.0511170923709869,0.0538216362321352
3.405395107,0.000443458557128906,-0.0205608606338501,-0.0555720925331116,0.0592554057787575
3.410395107,-0.00564479827880859,-0.0151760578155518,-0.0445871949195862,0.0474362143222515
3.415395107,-0.0130424499511719,-0.0139706134796143,-0.0274465084075928,0.0334453937858962
3.420395107,0.00360488891601563,-0.0110946893692017,-0.0104005038738251,0.0156287503379297
3.425395107,0.0102615356445313,-0.0120562314987183,0.00405740737915039,0.0163436344298034
3.430395107,0.0116872787475586,-0.0124012231826782,0.0270232558250427,0.0319474439718647
3.435395107,0.0197086334228516,-0.00631725788116455,0.0365779101848602,0.0420271518428882
3.440395107,0.0222864151000977,-0.00910067558288574,0.0448977053165436,0.050944190412352
3.445395107,0.013824462890625,-0.00916516780853272,0.0473092496395111,0.0501326358435941
3.450395107,-0.00340366363525391,-0.00609195232391357,0.0395736396312714,0.040184197925609
3.455395107,0.0100803375244141,-0.00198650360107422,0.0462774932384491,0.0474042802033518
3.460395107,0.0141429901123047,-0.00134766101837158,0.04679074883461,0.0489000463807627
3.465395107,0.00848484039306641,-0.00775110721588135,0.0440066158771515,0.0454824627799228
3.470395107,-0.00187206268310547,-0.0141870975494385,0.0097324550151825,0.0173060404538216
3.475395107,-0.00104236602783203,-0.0197649002075195,0.020889550447464,0.0287769200062537
3.480395107,0.00612926483154297,-0.0204699039459229,0.0166463851928711,0.0270866571381545
3.485395107,0.00261688232421875,-0.0141987800598145,0.0126316845417023,0.0191836618675078
3.490395107,-0.00670623779296875,-0.0239162445068359,-0.00593471527099609,0.0255378390235822
3.495395107,0.00141143798828125,-0.00812685489654541,-0.0177019238471985,0.0195293634201497
3.500395107,0.00247001647949219,-0.00439572334289551,-0.0332364439964294,0.0336167305763667
3.505395107,-0.0069580078125,0.00399541854858398,-0.0248620808124542,0.0261247067815542
3.510395107,0.0105304718017578,0.00360465049743652,-0.0122939944267273,0.0165839271748488
3.515395107,-0.00270938873291016,0.00467479228973389,-0.0239253044128418,0.0245278344234733
3.520395107,-0.00492477416992188,0.0136240720748901,-0.0272319614887238,0.030845558303423
3.525395107,-0.0145053863525391,0.0192521810531616,-0.0232649743556976,0.0335009214845116
3.530395107,-0.015812873840332,0.0195860862731934,-0.0214765071868897,0.0330893051534745
3.535395107,-0.00863170623779297,0.028597354888916,-0.0014248788356781,0.0299056071484016
3.540395107,-0.00877094268798828,0.019355297088623,-0.00255373120307922,0.0214027686078791
3.545395107,-0.00224494934082031,0.0098881721496582,-0.00560754537582398,0.0115870751765081
3.550395107,-0.00989723205566406,0.0106953382492065,0.00575935840606689,0.015668939717739
3.555395107,-0.00263881683349609,0.0220937728881836,0.0168789625167847,0.0279284358738258
3.560395107,-0.00543498992919922,0.013668417930603,-0.00612497329711914,0.0159336142210909
3.565395107,0.0068511962890625,0.0102784633636475,-0.00642681121826172,0.0139244246611586
3.570395107,0.00126838684082031,0.0119673013687134,-0.00306195020675659,0.0124177552841177
3.575395107,0.00391674041748047,0.0200215578079224,0.0101321637630463,0.0227785946685719
3.580395107,0.000901222229003906,0.0174171924591064,0.0188396275043488,0.025672988902078
3.585395107,0.00718402862548828,0.00497400760650635,0.0147434175014496,0.0171382431591884
3.590395107,-0.00152587890625,-0.00536346435546875,0.00587138533592224,0.00809742070611409
3.595395107,0.00213909149169922,-0.00656592845916748,-0.0155943632125855,0.0170549492214666
3.600395107,0.00871372222900391,-0.018154501914978,0.01014444231987,0.0225482727685813
3.605395107,0.0258035659790039,-0.0204751491546631,0.0152677297592163,0.0363064639167596
3.610395107,0.0300617218017578,-0.0146329402923584,0.027656078338623,0.0433899611472292
3.615395107,0.030919075012207,-0.0145996809005737,0.0292259156703949,0.0449810407703301
3.620395107,0.0204696655273438,-0.0310534238815308,0.0134393572807312,0.0395466644065779
3.625395107,0.0131072998046875,-0.0136773586273193,0.00595152378082275,0.0198567893302006
3.630395107,0.0185279846191406,-0.01983642578125,0.0219862759113312,0.0349308793229047
3.635395107,0.026824951171875,-0.0204604864120483,0.0347439050674439,0.0484287977233241
3.640395107,0.0264768600463867,-0.0129250288009644,0.0291447043418884,0.0414426625423343
3.645395107,0.00703907012939453,-0.0145760774612427,0.0145774185657501,0.0217832888812447
3.650395107,-0.000452041625976563,-0.0173534154891968,0.0224709212779999,0.0283952051208365
3.655395107,-0.00873184204101563,-0.00398850440979004,0.0144351124763489,0.0173356772311037
3.660395107,0.00568103790283203,-0.00907981395721436,0.00816649198532105,0.0134688085775005
3.665395107,0.00754928588867188,-0.00723326206207275,-0.00195413827896118,0.0106362800781487
3.670395107,0.0133056640625,-0.0118309259414673,-0.00692149996757507,0.0191028444630042
3.675395107,0.0149126052856445,0.000581264495849609,-0.0257777273654938,0.0297861527047267
3.680395107,0.0194425582885742,0.00982415676116943,-0.0132655799388886,0.0255049552045809
3.685395107,0.0192031860351563,0.00632798671722412,-0.0245631337165833,0.0318143569441995
3.690395107,0.0166711807250977,0.00424563884735107,-0.014314591884613,0.0223799297767896
3.695395107,0.0109577178955078,0.0122522115707397,-0.00688683986663818,0.0178218077983244
3.700395107,-0.0143356323242188,0.0180317163467407,-0.0156214833259583,0.0278331437291531
3.705395107,-0.0285406112670898,0.0144271850585938,-0.0402221977710724,0.0513861397046841
3.710395107,-0.0393466949462891,0.00784993171691895,-0.0403167903423309,0.0568790595444764
3.715395107,-0.0532684326171875,0.0235332250595093,-0.0404249727725983,0.0708908810698433
3.720395107,-0.0677099227905273,0.0278340578079224,-0.0385320782661438,0.0827290122862722
3.725395107,-0.0726327896118164,0.019323468208313,-0.0300728380680084,0.0809524189870613
3.730395107,-0.0734977722167969,0.0285170078277588,-0.0240615904331207,0.0824263452450238
3.735395107,-0.044468879699707,0.00666117668151856,0.00854745507240295,0.0457702034597201
3.740395107,-0.0451107025146484,-0.00177562236785889,-0.00904282927513123,0.0460423834901878
3.745395107,-0.0207910537719727,0.000254988670349121,-0.0021807849407196,0.0209066678150473
3.750395107,-0.00542545318603516,-0.00299727916717529,0.0044192373752594,0.00761241641390772
3.755395107,0.00460147857666016,-0.00990617275238037,0.019946813583374,0.022741619023749
3.760395107,0.0377635955810547,-0.0129529237747192,0.0435501635074616,0.0590803192869654
3.765395107,0.0468854904174805,-0.0178780555725098,0.0591416358947754,0.077560345403122
3.770395107,0.0546083450317383,-0.0139789581298828,0.0509832501411438,0.0760050946480355
3.775395107,0.0612831115722656,-0.00630927085876465,0.0510880053043366,0.0800338112845061
3.780395107,0.0810298919677734,-0.0181107521057129,0.0565573275089264,0.100461803831584
3.785395107,0.0619583129882813,-0.0214227437973022,0.0420944690704346,0.0779083488881676
3.790395107,0.0196819305419922,-0.00137090682983398,0.0470421314239502,0.0510119584441148
3.795395107,0.00534152984619141,-0.0127108097076416,0.0228608846664429,0.0266967539647432
3.800395107,-0.00361824035644531,-0.00599062442779541,0.00840628147125244,0.0109382271180402
3.805395107,-0.00170993804931641,0.00318300724029541,0.00526505708694458,0.00638562834441986
3.810395107,0.00925731658935547,0.00868237018585205,0.000560015439987183,0.0127041363253372
3.815395107,0.00466251373291016,0.0071558952331543,0.00449734926223755,0.00965256552860455
3.820395107,-0.00339889526367188,0.0103248357772827,-0.0179965198040009,0.0210244963767759
3.825395107,-0.00854587554931641,0.0104978084564209,-0.0148139297962189,0.0200670996234983
3.830395107,-0.0108861923217773,0.00876843929290772,-0.020242840051651,0.0246001480535557
3.835395107,-0.0239181518554688,0.0141119956970215,-0.0258980989456177,0.0379728579347278
3.840395107,-0.0347557067871094,0.0172281265258789,-0.0384579300880432,0.0546239863477578
3.845395107,-0.0364046096801758,-0.00409781932830811,-0.0573678314685822,0.0680672888884305
3.850395107,-0.0316829681396484,-0.0116535425186157,-0.0590615570545197,0.0680285458103835
3.855395107,-0.0448637008666992,-0.0071185827255249,-0.0528700053691864,0.0697041128141992
3.860395107,-0.0363445281982422,-0.00729465484619141,-0.045285701751709,0.0585229143363745
3.865395107,-0.0236043930053711,-0.00108098983764648,-0.0232277810573578,0.033134056815151
3.870395107,-0.0236883163452148,0.0052872896194458,-0.00618243217468262,0.0250462418415503
3.875395107,-0.0104274749755859,0.00122547149658203,0.0119876861572266,0.0159354521165723
3.880395107,0.00734138488769531,-0.00207340717315674,0.0233127772808075,0.0245291771961375
3.885395107,0.0304708480834961,-0.0200937986373901,0.0314847528934479,0.0482029355057237
3.890395107,0.03033447265625,-0.0133051872253418,0.0342896580696106,0.0476758732375715
3.895395107,0.0523757934570313,-0.01460862159729,0.0461021661758423,0.071288465345604
3.900395107,0.0514907836914063,-0.0211789608001709,0.0457620620727539,0.0720695185975385
3.905395107,0.0455484390258789,-0.00722074508666992,0.0452399253845215,0.0646022469121465
3.910395107,0.0165004730224609,-0.0165364742279053,0.0425186157226563,0.0485134339418068
3.915395107,0.00217723846435547,-0.0222655534744263,0.0116880834102631,0.0252409693288208
3.920395107,0.00924396514892578,-0.0217102766036987,0.00800704956054688,0.0249178619578149
3.925395107,0.00874423980712891,-0.00729358196258545,-0.00111085176467896,0.0114408067588182
3.930395107,0.010716438293457,-0.00556230545043945,-0.00438618659973145,0.0128460081157192
3.935395107,0.00766372680664063,-0.0111442804336548,-0.00354576110839844,0.0139821356304605
3.940395107,-0.00824737548828125,-0.00715851783752441,-0.00888851284980774,0.0140808110830326
3.945395107,-0.00113010406494141,-0.0102412700653076,-0.0170068144798279,0.0198844785322484
3.950395107,-0.00499343872070313,-0.000578522682189941,-0.0168798267841339,0.0176124294466604
3.955395107,0.00111198425292969,0.00271141529083252,-0.0251027643680573,0.0252732479269351
3.960395107,-0.0114927291870117,0.00928044319152832,-0.0235680937767029,0.0278148250806047
3.965395107,-0.00491428375244141,0.0204665660858154,-0.00586342811584473,0.0218497208543779
3.970395107,-0.0224504470825195,0.0125781297683716,0.0125043392181396,0.0286110192400989
3.975395107,-0.023188591003418,0.0237377882003784,0.000604480504989624,0.0331897384450486
3.980395107,-0.0217714309692383,0.0262689590454102,0.00894385576248169,0.0352710358747489
3.985395107,-0.0200014114379883,0.0145094394683838,0.0208246111869812,0.0323147756341789
3.990395107,-0.0265645980834961,0.0122009515762329,0.0157981514930725,0.0332283415370273
3.995395107,-0.0139904022216797,0.00795841217041016,0.011800616979599,0.0199580119174659
4.000395107,-0.002532958984375,0.0354849100112915,0.0168203115463257,0.0393512083707914
4.005395107,0.000462532043457031,0.0255892276763916,0.0132088363170624,0.0288009698763145
4.010395107,0.00811004638671875,0.0101078748703003,-0.0117770135402679,0.0175111403031337
4.015395107,0.0125913619995117,0.0106054544448853,-0.00848296284675598,0.0185196846529504
4.020395107,0.0210494995117188,0.0164121389389038,-0.0132582783699036,0.0298030481591663
4.025395107,0.00821971893310547,0.0117388963699341,-0.00957876443862915,0.0172371167975984
4.030395107,0.0113544464111328,0.0102869272232056,-0.0149926841259003,0.0214365319559353
4.035395107,0.0123758316040039,0.00133943557739258,-0.0244563817977905,0.0274421192001629
4.040395107,0.0159425735473633,-0.0114139318466187,-0.022931307554245,0.0301709853611001
4.045395107,0.0131139755249023,-0.011218786239624,-0.0176164209842682,0.024661220712955
4.050395107,0.0180120468139648,-0.0166640281677246,-0.0122174620628357,0.0274114947505606
4.055395107,0.0116958618164063,-0.0306483507156372,-0.0111736357212067,0.03465493789415
4.060395107,0.0230789184570313,-0.0253113508224487,0.00373214483261108,0.0344562020927287
4.065395107,0.00228595733642578,-0.0111958980560303,0.0111660361289978,0.0159766735292133
4.070395107,0.00182723999023438,-0.0216828584671021,0.00556638836860657,0.0224604059793328
4.075395107,-0.00367259979248047,-0.0158078670501709,0.00850877165794373,0.018324187431879
4.080395107,-0.0217103958129883,-0.0152847766876221,0.0196617841720581,0.0330386355888933
4.085395107,-0.0315961837768555,-0.0162094831466675,-0.000243008136749268,0.0355123249886212
4.090395107,-0.0241050720214844,-0.0112667083740234,0.00207486748695374,0.0266889169850456
4.095395107,-0.0409507751464844,-0.00985848903656006,-0.00366201996803284,0.0422796189839522
4.100395107,-0.0259113311767578,0.00210177898406982,0.00559830665588379,0.0265923973282367
4.105395107,0.00444698333740234,0.0214114189147949,0.0171644687652588,0.0278000631067902
4.110395107,0.045201301574707,0.00447428226470947,0.0078066885471344,0.0460881899395481
4.115395107,0.0722227096557617,-0.0014498233795166,0.0217603147029877,0.0754435754310817
4.120395107,0.115226745605469,-0.00317740440368652,0.0167156755924225,0.116476231962075
4.125395107,0.154636383056641,-0.0201162099838257,0.00852203369140625,0.156172013905152
4.130395107,0.181305885314941,-0.0238438844680786,0.00222763419151306,0.182880609224852
4.135395107,0.198817253112793,-0.0418225526809692,0.00705504417419434,0.203290923792403
4.140395107,0.197220802307129,-0.0484861135482788,0.0182941257953644,0.203915725505172
4.145395107,0.167469024658203,-0.0433956384658814,0.0425514280796051,0.178156334968603
4.150395107,0.103500366210938,-0.0182700157165527,0.0200429856777191,0.10699458189534
4.155395107,-0.0172290802001953,-0.00541234016418457,0.0196071267127991,0.0266565948412277
4.160395107,-0.142025947570801,0.0103787183761597,-0.00862091779708862,0.142665370017323
4.165395107,-0.288101196289063,0.031574010848999,-0.0311202108860016,0.291492169688777
4.170395107,-0.499052047729492,0.048492431640625,-0.0481933057308197,0.503713268622819
4.175395107,-0.747066497802734,0.097186803817749,-0.0749691724777222,0.75708256075381
4.180395107,-0.920655250549316,0.128677725791931,-0.0733432471752167,0.932493045220828
4.185395107,-1.07053184509277,0.148501753807068,-0.084659606218338,1.08409337751254
4.190395107,-1.28743267059326,0.166273593902588,-0.0829387009143829,1.30077231576074
4.195395107,-1.50613021850586,0.194334506988525,-0.0781385004520416,1.52062479295712
4.200395107,-1.63225078582764,0.209463596343994,-0.0976134538650513,1.64852843845769
4.205395107,-1.73360061645508,0.223876237869263,-0.0703100264072418,1.7494099482595
4.210395107,-1.81353855133057,0.22777271270752,-0.062080055475235,1.82884018413423
4.215395107,-1.76320171356201,0.217841029167175,-0.0534951984882355,1.77741293259555
4.220395107,-1.68168544769287,0.214400410652161,-0.0356673300266266,1.69567262155789
4.225395107,-1.57251071929932,0.204050779342651,-0.0140233337879181,1.58575639262534
4.230395107,-1.40189361572266,0.182902693748474,0.016534686088562,1.41387145845315
4.235395107,-1.29513072967529,0.181451678276062,0.0292180776596069,1.30810627036208
4.240395107,-1.09184169769287,0.168097376823425,0.0457675158977509,1.10565351101836
4.245395107,-0.705032348632813,0.127471089363098,0.079380989074707,0.720847301908382
4.250395107,-0.266118049621582,0.0763565301895142,0.083012729883194,0.289033301471711
4.255395107,-0.0955047607421875,0.0554244518280029,0.0851344764232636,0.139430657535279
4.260395107,-0.130766868591309,0.0689578056335449,0.0793133676052094,0.167766990674117
4.265395107,-0.126768112182617,0.050318717956543,0.0445753931999207,0.143489000700619
4.270395107,0.12678337097168,0.0464987754821777,0.0141496956348419,0.135780606725862
4.275395107,0.587050437927246,-0.0114409923553467,0.0167433321475983,0.587400589162159
4.280395107,1.05057048797607,-0.0745871067047119,0.02257439494133,1.05345678126814
4.285395107,1.37522888183594,-0.12079131603241,0.0201966166496277,1.38067118561541
4.290395107,1.52499485015869,-0.153817176818848,0.0265490412712097,1.53296244849229
4.295395107,1.65150737762451,-0.180394411087036,0.0305856764316559,1.66161194191135
4.300395107,1.90967035293579,-0.223960518836975,0.0392284691333771,1.92315835116877
4.305395107,2.22199821472168,-0.282117247581482,0.051777571439743,2.24043458385053
4.310395107,2.4736008644104,-0.324270009994507,0.0573764741420746,2.49542468040586
4.315395107,2.57273530960083,-0.342764258384705,0.0780883729457855,2.59664246751112
4.320395107,2.51429510116577,-0.345667481422424,0.0661237835884094,2.53880645544617
4.325395107,2.34898471832275,-0.30477499961853,0.0894553661346436,2.37036268740389
4.330395107,2.08989477157593,-0.271897912025452,0.0739700794219971,2.10880539725075
4.335395107,1.89377117156982,-0.2426598072052,0.0779257118701935,1.91084417179222
4.340395107,1.69699144363403,-0.194864630699158,0.0730006694793701,1.70970210323585
4.345395107,1.44891262054443,-0.147679090499878,0.0645773112773895,1.45785017230017
4.350395107,1.08529186248779,-0.0990444421768189,0.0637677609920502,1.09166595424163
4.355395107,0.769222259521484,-0.0426945686340332,0.0295833647251129,0.770973985425347
4.360395107,0.493204116821289,0.014897346496582,0.0122298002243042,0.493580590983512
4.365395107,0.360886573791504,0.0325732231140137,-0.00213637948036194,0.362359901374711
4.370395107,0.312929153442383,0.0328712463378906,-0.0155892074108124,0.31503681895561
4.375395107,0.325125694274902,0.0220277309417725,-0.0204196572303772,0.326510184235632
4.380395107,0.393490791320801,0.0159701108932495,-0.0364244282245636,0.395495621047438
4.385395107,0.390730857849121,-0.00000202655792236328,-0.0662602782249451,0.396309257714306
4.390395107,0.432883262634277,-0.0104929208755493,-0.0544589757919312,0.436421585742162
4.395395107,0.515375137329102,-0.0298019647598267,-0.0252023339271545,0.516850894277946
4.400395107,0.64991569519043,-0.0430697202682495,-0.00856867432594299,0.65139760042431
4.405395107,0.714443206787109,-0.0708417892456055,0.0244225859642029,0.71836210752861
4.410395107,0.723660469055176,-0.0778957605361939,0.0713000595569611,0.731324772228793
4.415395107,0.519739151000977,-0.0388853549957275,0.0959163308143616,0.529944146522301
4.420395107,0.29405689239502,-0.02044677734375,0.130740880966187,0.322460392334587
4.425395107,0.0838708877563477,0.0249717235565186,0.146809279918671,0.170911899704671
4.430395107,-0.12646484375,0.0596548318862915,0.156562477350235,0.209913946621315
4.435395107,-0.343557357788086,0.0912961959838867,0.152992278337479,0.387005543529226
4.440395107,-0.579551696777344,0.125563979148865,0.124043703079224,0.605832751153981
4.445395107,-0.757155418395996,0.143383145332336,0.11743888258934,0.779509425931234
4.450395107,-0.84512996673584,0.156677842140198,0.0847516655921936,0.863698704244299
4.455395107,-0.823503494262695,0.159850716590881,0.0789218544960022,0.842578729718817
4.460395107,-0.734318733215332,0.141046166419983,0.0492728352546692,0.749363620218367
4.465395107,-0.575143814086914,0.119789719581604,0.0195989608764648,0.587812983071418
4.470395107,-0.41956615447998,0.0962158441543579,0.00363340973854065,0.430472354882149
4.475395107,-0.214897155761719,0.0713146924972534,-0.0421828627586365,0.230317100604728
4.480395107,0.0118160247802734,0.0340526103973389,-0.0611456334590912,0.0709787799810233
4.485395107,0.305639266967773,-0.0185505151748657,-0.0740612745285034,0.315031038963841
4.490395107,0.552913665771484,-0.0467429161071777,-0.0445032119750977,0.556667726636962
4.495395107,0.657241821289063,-0.0630208253860474,-0.0243642926216126,0.660705724841744
4.500395107,0.552651405334473,-0.0632213354110718,-0.0267718434333801,0.556899671996804
4.505395107,0.48743724822998,-0.0495408773422241,-0.0425586104393005,0.491793254134679
4.510395107,0.530867576599121,-0.0487462282180786,-0.0331439077854157,0.534130225013527
4.515395107,0.501420974731445,-0.0363178253173828,-0.0417207777500153,0.504462686065563
4.520395107,0.362844467163086,-0.023760199546814,-0.0698946118354797,0.370278153820882
4.525395107,0.145474433898926,0.0106571912765503,-0.0728124976158142,0.163027747494624
4.530395107,0.0270280838012695,0.0230326652526855,-0.0904452502727509,0.0971666829706112
4.535395107,-0.125617980957031,0.0523771047592163,-0.102804630994797,0.170563860171653
4.540395107,-0.312657356262207,0.0804380178451538,-0.10062512755394,0.338157231824157
4.545395107,-0.503639221191406,0.105533480644226,-0.128195106983185,0.53030535176783
4.550395107,-0.684226036071777,0.116703033447266,-0.149170458316803,0.709955415564059
4.555395107,-0.869484901428223,0.136823058128357,-0.157233953475952,0.894118034251026
4.560395107,-1.00286865234375,0.158627986907959,-0.181525439023972,1.03143582306273
4.565395107,-1.14252376556396,0.17894721031189,-0.17687126994133,1.16990004063917
4.570395107,-1.1871166229248,0.18780243396759,-0.186031311750412,1.21619212280796
4.575395107,-1.21956157684326,0.187374234199524,-0.205531030893326,1.25087271455347
4.580395107,-1.2019214630127,0.177099585533142,-0.184427708387375,1.22881774322623
4.585395107,-1.20314979553223,0.155594110488892,0.00946247577667236,1.21320587542094
4.590395107,-1.11689376831055,0.118096232414246,0.195770353078842,1.1400545780558
4.595395107,-0.977739334106445,0.0788969993591309,0.365628302097321,1.04684430421212
4.600395107,-0.858318328857422,0.0653378963470459,0.500513732433319,0.995737611374597
4.605395107,-0.810025215148926,0.0628695487976074,0.554153859615326,0.983453064192512
4.610395107,-0.775655746459961,0.0522565841674805,0.527495741844177,0.939480891380421
4.615395107,-0.710971832275391,0.0640332698822022,0.433128356933594,0.834973879544042
4.620395107,-0.747565269470215,0.06975257396698,0.295570313930512,0.806895943830476
4.625395107,-0.697760581970215,0.0818504095077515,0.136918634176254,0.715762552577802
4.630395107,-0.590815544128418,0.0855439901351929,-0.0365644991397858,0.598095096142204
4.635395107,-0.45317268371582,0.0744103193283081,-0.107593595981598,0.471676540422556
4.640395107,-0.275465965270996,0.0458741188049316,-0.100127786397934,0.296667332896227
4.645395107,-0.0820674896240234,0.0168410539627075,-0.0810306966304779,0.11655328287176
4.650395107,0.186479568481445,-0.0258395671844482,-0.0642500519752502,0.198923055154821
4.655395107,0.427837371826172,-0.0521707534790039,-0.0405324995517731,0.432908174754887
4.660395107,0.655994415283203,-0.0857493877410889,-0.0192303657531738,0.661854543950349
4.665395107,0.887097358703613,-0.113301038742065,-0.00501158833503723,0.894317597510302
4.670395107,1.11299896240234,-0.16556441783905,-0.00674715638160706,1.12526609781079
4.675395107,1.31883525848389,-0.186274409294128,0.031132698059082,1.33228894743842
4.680395107,1.45358371734619,-0.206370711326599,0.0380758345127106,1.46865389489875
4.685395107,1.51889324188232,-0.216430187225342,0.0455393493175507,1.53491124776466
4.690395107,1.49684619903564,-0.20647668838501,0.0465585589408875,1.51173703593732
4.695395107,1.41760635375977,-0.210867166519165,0.0394013226032257,1.43374516576648
4.700395107,1.35757255554199,-0.193757295608521,0.0321646332740784,1.37170685527047
4.705395107,1.27620792388916,-0.173752784729004,0.0501913130283356,1.28895921700497
4.710395107,1.17920875549316,-0.158515810966492,0.0375195443630219,1.19040676559204
4.715395107,1.05648231506348,-0.142043948173523,0.0309490561485291,1.06643762561675
4.720395107,0.948149681091309,-0.130588889122009,0.0101451575756073,0.957154219516325
4.725395107,0.862161636352539,-0.109386563301086,-0.00978609919548035,0.869128227114028
4.730395107,0.803926467895508,-0.101010084152222,-0.00819772481918335,0.810288840831217
4.735395107,0.752046585083008,-0.0978739261627197,-0.0216543674468994,0.758697754831952
4.740395107,0.689568519592285,-0.0903133153915405,-0.0289568901062012,0.696060155183681
4.745395107,0.615875244140625,-0.0906013250350952,-0.017405241727829,0.622747026394341
4.750395107,0.517410278320313,-0.0949423313140869,-0.0312163233757019,0.526974288966695
4.755395107,0.405743598937988,-0.0777846574783325,-0.0478410124778748,0.415893115467281
4.760395107,0.25349235534668,-0.0663132667541504,-0.0526217818260193,0.267254327353851
4.765395107,0.0514459609985352,-0.0385380983352661,-0.0710044205188751,0.0957783882699155
4.770395107,-0.139264106750488,-0.0155760049819946,-0.0646000802516937,0.154305779958937
4.775395107,-0.339951515197754,0.0137399435043335,-0.0790827870368958,0.349299163953013
4.780395107,-0.565072059631348,0.0595824718475342,-0.0950534343719482,0.576100389613979
4.785395107,-0.821864128112793,0.0996801853179932,-0.0980302393436432,0.833670625756601
4.790395107,-1.05722236633301,0.128612756729126,-0.109630346298218,1.07064428541776
4.795395107,-1.30951690673828,0.172218799591064,-0.125907212495804,1.32678049055767
4.800395107,-1.54165935516357,0.192807197570801,-0.0980686545372009,1.55676126743994
4.805395107,-1.70144367218018,0.207458853721619,-0.0971883535385132,1.71679798510278
4.810395107,-1.805251121521,0.22140383720398,-0.11019292473793,1.8221124420693
4.815395107,-1.84231090545654,0.238986849784851,-0.0996365547180176,1.86041705801959
4.820395107,-1.81411743164063,0.237449765205383,-0.0946179628372192,1.83203630031447
4.825395107,-1.70900821685791,0.209527850151062,-0.0808502733707428,1.72370176422167
4.830395107,-1.55232238769531,0.193770289421082,-0.0645575821399689,1.56570092987587
4.835395107,-1.38046264648438,0.157970428466797,-0.0503261983394623,1.39038286124647
4.840395107,-1.20529460906982,0.130409955978394,-0.0379838645458221,1.21292399812886
4.845395107,-1.05364322662354,0.0904072523117065,-0.028314620256424,1.05789377444074
4.850395107,-0.916012763977051,0.0587661266326904,-0.0244766175746918,0.918222166044898
4.855395107,-0.758108139038086,0.052814245223999,-0.00714004039764404,0.759979128102378
4.860395107,-0.630578994750977,0.0463613271713257,0.031448632478714,0.633062601772542
4.865395107,-0.504911422729492,0.0351920127868652,0.0257796049118042,0.506792472907915
4.870395107,-0.410155296325684,0.026565432548523,0.0284444987773895,0.411997789825621
4.875395107,-0.303645133972168,0.0239427089691162,0.0378212928771973,0.306926816835314
4.880395107,-0.208903312683105,0.00681698322296143,0.0341453850269318,0.211785203989502
4.885395107,-0.0730133056640625,-0.00996935367584229,0.0221096575260162,0.0769361278764767
4.890395107,0.106529235839844,-0.0189690589904785,0.0310294926166534,0.112566125897857
4.895395107,0.290485382080078,-0.0492019653320313,0.0343394875526428,0.296617246632966
4.900395107,0.50618839263916,-0.0828976631164551,0.0537712275981903,0.515742238245233
4.905395107,0.736807823181152,-0.122222185134888,0.0629798769950867,0.749526847915678
4.910395107,0.989602088928223,-0.15942907333374,0.0881626009941101,1.00623186594801
4.915395107,1.23707866668701,-0.192191362380981,0.0747753083705902,1.25415010827568
4.920395107,1.45509243011475,-0.227946639060974,0.0708239078521729,1.47454049668359
4.925395107,1.62782669067383,-0.248753666877747,0.0728920102119446,1.64833593869938
4.930395107,1.75179767608643,-0.267076849937439,0.083751380443573,1.77401787912087
4.935395107,1.80536508560181,-0.291045188903809,0.0775895118713379,1.83031978808254
4.940395107,1.8313045501709,-0.289615392684937,0.0736345052719116,1.85552565908514
4.945395107,1.78560066223145,-0.27451753616333,0.0690235495567322,1.80789763344498
4.950395107,1.68029737472534,-0.255221247673035,0.0776525139808655,1.70134272435045
4.955395107,1.54059314727783,-0.237421035766602,0.0590786039829254,1.55989944391056
4.960395107,1.34903335571289,-0.209085583686829,0.0459900796413422,1.3659146618867
4.965395107,1.14004039764404,-0.177196025848389,0.0392330586910248,1.15439584750254
4.970395107,0.956538200378418,-0.15106475353241,0.0148122310638428,0.968506732414431
4.975395107,0.855449676513672,-0.112400889396667,0.0134615302085876,0.862907481587722
4.980395107,0.711071968078613,-0.0948728322982788,0.0143261253833771,0.717516157284273
4.985395107,0.486686706542969,-0.0721801519393921,-0.00450539588928223,0.492030713728071
4.990395107,0.33482837677002,-0.0563091039657593,-0.01242995262146,0.33975765010084
4.995395107,0.222594261169434,-0.0356316566467285,-0.0165131986141205,0.226032090176209
5.000395107,0.0605659484863281,-0.0214053392410278,-0.0056496262550354,0.0644851993940751
5.005395107,0.0199127197265625,-0.0270307064056397,-0.0181659162044525,0.0381729748283221
5.010395107,0.0492820739746094,-0.0364513397216797,-0.0343565046787262,0.0702694271819794
5.015395107,0.00401782989501953,-0.0325560569763184,-0.0354606807231903,0.0483063109775797
5.020395107,-0.151769638061523,-0.0149022340774536,-0.0430567264556885,0.158461292784405
5.025395107,-0.252826690673828,0.000120282173156738,-0.0393984019756317,0.255878064833847
5.030395107,-0.323101997375488,0.00397443771362305,-0.0343320369720459,0.324945204035726
5.035395107,-0.421167373657227,0.0179047584533691,-0.0471467077732086,0.424176082614817
5.040395107,-0.527012825012207,0.0215742588043213,-0.0421172976493835,0.529133095857356
5.045395107,-0.640407562255859,0.0484664440155029,-0.0450620949268341,0.64381785808503
5.050395107,-0.760588645935059,0.0724054574966431,-0.0571991801261902,0.766165376930942
5.055395107,-0.862049102783203,0.076095461845398,-0.0403163135051727,0.866339760173477
5.060395107,-0.955813407897949,0.114269852638245,-0.0814962089061737,0.966063404754334
5.065395107,-1.05352306365967,0.112692594528198,-0.0636688470840454,1.06144438790422
5.070395107,-1.15937519073486,0.128086805343628,-0.0710376799106598,1.16859035361487
5.075395107,-1.25823020935059,0.136162519454956,-0.0662955641746521,1.26731156124135
5.080395107,-1.30742835998535,0.149547815322876,-0.0625489056110382,1.31743911857625
5.085395107,-1.30567169189453,0.158077001571655,-0.0594998002052307,1.31655122637331
5.090395107,-1.29009437561035,0.149529099464417,-0.080668717622757,1.30123398801714
5.095395107,-1.26498413085938,0.1420578956604,-0.0848249793052673,1.27575882288137
5.100395107,-1.24143600463867,0.130537629127502,-0.0782245099544525,1.25072878762307
5.105395107,-1.15966892242432,0.122246026992798,-0.077286422252655,1.16865276785575
5.110395107,-1.02398681640625,0.099410891532898,-0.0951465964317322,1.03319136675725
5.115395107,-0.848102569580078,0.0900784730911255,-0.0748088359832764,0.856147453295244
5.120395107,-0.728787422180176,0.059471607208252,-0.0753592848777771,0.735082988926589
5.125395107,-0.658197402954102,0.0511353015899658,-0.0574901103973389,0.662679223393731
5.130395107,-0.592938423156738,0.0461546182632446,-0.061994343996048,0.597954447370471
5.135395107,-0.450871467590332,0.0221809148788452,-0.065672904253006,0.456168832369055
5.140395107,-0.262572288513184,-0.0151311159133911,-0.0693792402744293,0.272004846179056
5.145395107,-0.105342864990234,-0.0437824726104736,-0.0560454428195953,0.127102776417678
5.150395107,0.00965595245361328,-0.0464584827423096,-0.041353702545166,0.0629424876430697
5.155395107,0.0521059036254883,-0.0425732135772705,-0.035020112991333,0.0758545451561757
5.160395107,0.142083168029785,-0.0538033246994019,-0.0310185551643372,0.155063132789753
5.165395107,0.278352737426758,-0.0677776336669922,-0.0284449756145477,0.287894374200294
5.170395107,0.42855167388916,-0.0937736034393311,-0.00989463925361633,0.438802837024964
5.175395107,0.500443458557129,-0.0963395833969116,0.00480601191520691,0.509654852122729
5.180395107,0.542267799377441,-0.0971696376800537,-0.00222557783126831,0.55090948251524
5.185395107,0.571676254272461,-0.10263729095459,0.00552964210510254,0.580843120072278
5.190395107,0.706145286560059,-0.123396754264832,0.0406097173690796,0.717995176751821
5.195395107,0.876729011535645,-0.147999286651611,0.0535242557525635,0.890742608429349
5.200395107,1.05270767211914,-0.151763439178467,0.0603755414485931,1.06530314484422
5.205395107,1.18163776397705,-0.17474365234375,0.0648531913757324,1.19624791984051
5.210395107,1.23618030548096,-0.192115426063538,0.06721031665802,1.25282373511035
5.215395107,1.32346630096436,-0.202035665512085,0.0832160413265228,1.34138226075241
5.220395107,1.4325532913208,-0.223595380783081,0.0987603962421417,1.45325752798583
5.225395107,1.52517700195313,-0.234906077384949,0.102049916982651,1.54653158326472
5.230395107,1.58807563781738,-0.244169473648071,0.104116976261139,1.61010661387264
5.235395107,1.59896278381348,-0.253686666488647,0.0953243970870972,1.62176621294645
5.240395107,1.5719690322876,-0.252118587493897,0.0957925021648407,1.59493781198582
5.245395107,1.536301612854,-0.251764416694641,0.0835314989089966,1.55903350781226
5.250395107,1.48133277893066,-0.240294456481934,0.0764463245868683,1.50264176312694
5.255395107,1.38174438476563,-0.228267669677734,0.0713189244270325,1.40228743944773
5.260395107,1.24640846252441,-0.201196432113647,0.0390869379043579,1.26314759567616
5.265395107,1.07921123504639,-0.191648960113525,0.0161352753639221,1.09621465091195
5.270395107,0.846577644348145,-0.158761382102966,0.000858157873153687,0.861335951178304
5.275395107,0.599396705627441,-0.110332727432251,-0.0333224236965179,0.610377019046982
5.280395107,0.365062713623047,-0.0783933401107788,-0.0485702455043793,0.376530701802526
5.285395107,0.137837409973145,-0.0431994199752808,-0.0469206273555756,0.151877867860153
5.290395107,-0.101250648498535,-0.0238333940505981,-0.0813350677490234,0.132042105932476
5.295395107,-0.325199127197266,0.0240482091903687,-0.0925793945789337,0.338974531485374
5.300395107,-0.54271411895752,0.0520033836364746,-0.12435507774353,0.559202246227676
5.305395107,-0.745315551757813,0.0818290710449219,-0.139032423496246,0.762575427969828
5.310395107,-0.930312156677246,0.103424787521362,-0.134491294622421,0.945656017727653
5.315395107,-1.09316253662109,0.127932071685791,-0.154390871524811,1.11139888773018
5.320395107,-1.22183132171631,0.147217154502869,-0.152367681264877,1.24006474814865
5.325395107,-1.30880260467529,0.130636215209961,-0.125716745853424,1.32130041206275
5.330395107,-1.4119873046875,0.156842589378357,-0.139819949865341,1.4275354163109
5.335395107,-1.48079776763916,0.188490033149719,-0.141638487577438,1.49945056017367
5.340395107,-1.54818534851074,0.179184198379517,-0.114087849855423,1.56269027250344
5.345395107,-1.57593822479248,0.18379008769989,-0.110065788030624,1.59043219358563
5.350395107,-1.58939552307129,0.181822180747986,-0.0993623435497284,1.60284444332153
5.355395107,-1.55332279205322,0.177814483642578,-0.0814331769943237,1.56558648730132
5.360395107,-1.49763202667236,0.185199975967407,-0.072574257850647,1.5107838168698
5.365395107,-1.40591526031494,0.172613024711609,-0.0581748485565186,1.41766614140675
5.370395107,-1.31731700897217,0.153471231460571,-0.0484016835689545,1.32710973321188
5.375395107,-1.24318504333496,0.153623104095459,-0.0331071019172668,1.25307828577509
5.380395107,-1.19784355163574,0.143933057785034,-0.0293662250041962,1.20681741555617
5.385395107,-1.12561798095703,0.128709435462952,-0.0392034947872162,1.13363083578143
5.390395107,-0.992973327636719,0.115689992904663,-0.046089768409729,1.00075195258779
5.395395107,-0.813602447509766,0.0846260786056519,-0.032374918460846,0.818632183046451
5.400395107,-0.636336326599121,0.0625200271606445,-0.021497905254364,0.639761544855704
5.405395107,-0.455898284912109,0.0420941114425659,-0.0366288423538208,0.459300372845617
5.410395107,-0.28394889831543,0.0176498889923096,-0.0485548079013824,0.288610576393741
5.415395107,-0.0757846832275391,-0.0208154916763306,-0.0408429503440857,0.0885705904825935
5.420395107,0.131448745727539,-0.0316841602325439,-0.0367648601531982,0.140122495356987
5.425395107,0.329477310180664,-0.0732784271240234,-0.0551820695400238,0.342008898428647
5.430395107,0.503124237060547,-0.101278305053711,-0.0446000397205353,0.515150906565623
5.435395107,0.671503067016602,-0.1162269115448,-0.0432678759098053,0.682859555886634
5.440395107,0.858842849731445,-0.135046601295471,-0.050898939371109,0.870884221401095
5.445395107,1.04657077789307,-0.160911798477173,-0.0470903217792511,1.05991532606814
5.450395107,1.21270942687988,-0.189356088638306,-0.0419013500213623,1.22811872613414
5.455395107,1.32095336914063,-0.20853865146637,-0.0379287302494049,1.33785079929629
5.460395107,1.40628433227539,-0.218178629875183,-0.0284340977668762,1.42339243908814
5.465395107,1.48927974700928,-0.238455772399902,-0.0175915360450745,1.50835167728991
5.470395107,1.61322116851807,-0.242135047912598,-0.0128810405731201,1.63134234334449
5.475395107,1.67198991775513,-0.248691558837891,-0.01626056432724,1.69046212097883
5.480395107,1.67256021499634,-0.252649784088135,0.00419014692306519,1.6915398734643
5.485395107,1.65335178375244,-0.260564684867859,0.015422135591507,1.6738291185494
5.490395107,1.62194347381592,-0.250903367996216,0.0100096166133881,1.64126576907905
5.495395107,1.54103183746338,-0.230751752853394,0.0233623087406158,1.55838740144752
5.500395107,1.41743564605713,-0.215409994125366,0.0360342562198639,1.43416308134877
5.505395107,1.27902603149414,-0.194490551948547,0.0221536457538605,1.29391844722034
5.510395107,1.12393379211426,-0.173896312713623,0.02938511967659,1.13768650422255
5.515395107,0.943487167358398,-0.136224627494812,0.0314198732376099,0.95378844223462
5.520395107,0.719247817993164,-0.109231233596802,0.0179881155490875,0.727717292897465
5.525395107,0.500737190246582,-0.0733428001403809,0.0194361507892609,0.506453022486762
5.530395107,0.265604019165039,-0.049978494644165,0.0264321863651276,0.271554792628597
5.535395107,0.029022216796875,-0.0182446241378784,-0.0000581145286560059,0.0342805886039856
5.540395107,-0.155930519104004,0.0110163688659668,-0.0192447900772095,0.157499362272204
5.545395107,-0.324262619018555,0.0397433042526245,-0.0160186886787415,0.327081602528598
5.550395107,-0.492910385131836,0.0544573068618774,-0.0469029247760773,0.498122605784975
5.555395107,-0.668001174926758,0.0857949256896973,-0.0616690814495087,0.676305710891499
5.560395107,-0.791069030761719,0.0921186208724976,-0.0432080626487732,0.797585724809313
5.565395107,-0.903002738952637,0.105439186096191,-0.0789226591587067,0.91255693227835
5.570395107,-0.977519989013672,0.126958727836609,-0.0752293169498444,0.98859663039276
5.575395107,-1.03079414367676,0.127732396125793,-0.0925591886043549,1.0427940041319
5.580395107,-1.08883953094482,0.138320803642273,-0.101578593254089,1.10228053574209
5.585395107,-1.09169673919678,0.156665205955505,-0.107853442430496,1.10814174281726
5.590395107,-1.1065092086792,0.118340730667114,-0.110447973012924,1.11828704372775
5.595395107,-1.08131980895996,0.131192445755005,-0.109272539615631,1.09471661857598
5.600395107,-1.0521354675293,0.128012418746948,-0.109061717987061,1.06549081634561
5.605395107,-1.00391864776611,0.128220677375793,-0.117402344942093,1.01886039477308
5.610395107,-0.949271202087402,0.115192532539368,-0.118324190378189,0.963527762285005
5.615395107,-0.893142700195313,0.105810284614563,-0.116347372531891,0.906882798567413
5.620395107,-0.849964141845703,0.114145994186401,-0.120131522417068,0.865967628200123
5.625395107,-0.821120262145996,0.109631776809692,-0.123945415019989,0.837627648360318
5.630395107,-0.762739181518555,0.0929404497146606,-0.11352813243866,0.776722359065173
5.635395107,-0.66367244720459,0.0922962427139282,-0.105535596609116,0.678319597055311
5.640395107,-0.554244041442871,0.0719068050384522,-0.099167138338089,0.567618857519666
5.645395107,-0.452669143676758,0.0573548078536987,-0.0807088315486908,0.463371172075841
5.650395107,-0.388971328735352,0.0415256023406982,-0.0577095746994019,0.395415560189389
5.655395107,-0.286200523376465,0.0353350639343262,0.131027549505234,0.316745205257399
5.660395107,-0.115670204162598,0.0244317054748535,0.535549581050873,0.548443122052955
5.665395107,0.0409183502197266,-0.00867879390716553,0.850716948509216,0.851744656178846
5.670395107,0.173864364624023,-0.0225298404693604,0.991033673286438,1.00642145872656
5.675395107,0.217962265014648,-0.0111870765686035,0.978405356407166,1.00245186472903
5.680395107,0.148618698120117,-0.0112930536270142,0.787781238555908,0.801757026980008
5.685395107,0.093052864074707,-0.00562286376953125,0.549935102462769,0.557780484626535
5.690395107,0.0401782989501953,0.000609874725341797,0.259297847747803,0.262392914348605
5.695395107,0.00757884979248047,-0.00217974185943604,-0.00586271286010742,0.00982657828701465
5.700395107,0.0369300842285156,-0.0077211856842041,-0.09491166472435,0.102135556640392
5.705395107,0.0816555023193359,-0.00697803497314453,-0.0780436396598816,0.113168563313629
5.710395107,0.129611015319824,-0.0182198286056519,-0.0767836272716522,0.151745520077685
5.715395107,0.18486499786377,-0.0327339172363281,-0.0858038365840912,0.20641917339568
5.720395107,0.245619773864746,-0.0499123334884644,-0.0836714506149292,0.264237064008135
5.725395107,0.323110580444336,-0.0626134872436523,-0.0741225183010101,0.337364852495292
5.730395107,0.409154891967773,-0.0741875171661377,-0.0619243085384369,0.420411861526765
5.735395107,0.485664367675781,-0.0858575105667114,-0.0790797770023346,0.499494745999764
5.740395107,0.546948432922363,-0.0796594619750977,-0.0619913935661316,0.556184457742809
5.745395107,0.61244010925293,-0.0811058282852173,-0.0387060940265656,0.618998549690034
5.750395107,0.680704116821289,-0.0962387323379517,-0.0146356821060181,0.687629399786088
5.755395107,0.722176551818848,-0.0937174558639526,0.0154022872447968,0.728394923089765
5.760395107,0.752904891967773,-0.102373957633972,0.0449532270431519,0.761161609759872
5.765395107,0.763050079345703,-0.095949649810791,0.0470803380012512,0.77049874569308
5.770395107,0.763075828552246,-0.113342523574829,0.0453934967517853,0.772781869170312
5.775395107,0.759079933166504,-0.111794233322144,0.047604501247406,0.76874344490159
5.780395107,0.771899223327637,-0.107115626335144,0.0604510605335236,0.781637063539471
5.785395107,0.806337356567383,-0.0990220308303833,0.0467247664928436,0.813737364872512
5.790395107,0.826879501342773,-0.11248505115509,0.0408157110214233,0.835492979468063
5.795395107,0.844039916992188,-0.119162082672119,0.039769858121872,0.85333734539042
5.800395107,0.924343109130859,-0.115814685821533,0.0473477244377136,0.932772765393091
5.805395107,0.957328796386719,-0.12145471572876,0.0298210680484772,0.965463084982305
5.810395107,0.889854431152344,-0.121543645858765,0.019597053527832,0.89833056888713
5.815395107,0.882090568542481,-0.113449692726135,-0.00688236951828003,0.889382915791301
5.820395107,0.799777984619141,-0.0985260009765625,-0.0196883380413055,0.806064406982914
5.825395107,0.637543678283691,-0.0865175724029541,-0.0349155962467194,0.644334021230653
5.830395107,0.513108253479004,-0.0799989700317383,-0.0583413541316986,0.522574041257632
5.835395107,0.502274513244629,-0.076980471611023,-0.0824996531009674,0.514793038440075
5.840395107,0.421797752380371,-0.0597763061523438,-0.102577120065689,0.438187877800519
5.845395107,0.244452476501465,-0.0316585302352905,-0.118496805429459,0.273497291945176
5.850395107,0.0544891357421875,0.0166926383972168,-0.144100368022919,0.154960079229882
5.855395107,-0.151415824890137,0.0362492799758911,-0.181880623102188,0.239418719790185
5.860395107,-0.37564754486084,0.0638934373855591,-0.1904256939888,0.425975814139765
5.865395107,-0.517454147338867,0.0802215337753296,-0.207775712013245,0.563351609194534
5.870395107,-0.586532592773438,0.0905381441116333,-0.21552899479866,0.631403504522766
5.875395107,-0.719880104064941,0.111456751823425,-0.221106976270676,0.761274107474529
5.880395107,-1.04262733459473,0.154109358787537,-0.228412836790085,1.07842193844548
5.885395107,-1.18148803710938,0.176663517951965,-0.2369704246521,1.21789940576696
5.890395107,-1.24823188781738,0.192659735679626,-0.244487673044205,1.28645825497249
5.895395107,-1.23058414459229,0.180575013160706,-0.219325602054596,1.262952252469
5.900395107,-1.21822452545166,0.179917573928833,-0.195084154605865,1.24679555469156
5.905395107,-1.23933219909668,0.181907653808594,-0.190365701913834,1.26699399947163
5.910395107,-1.2442626953125,0.190900921821594,-0.169775307178497,1.27021906450274
5.915395107,-1.20708465576172,0.167185425758362,-0.170905470848084,1.23053362925488
5.920395107,-1.13547611236572,0.155195951461792,-0.141374439001083,1.15472010336106
5.925395107,-1.00396156311035,0.131191968917847,-0.123907953500748,1.02005065259146
5.930395107,-0.840450286865234,0.113770365715027,-0.0734382271766663,0.851289347999631
5.935395107,-0.623202323913574,0.0921201705932617,0.21527025103569,0.665739095548985
5.940395107,-0.32611083984375,0.063238263130188,0.590645134449005,0.677649638556387
5.945395107,-0.104477882385254,0.0371476411819458,0.858164727687836,0.865298951230514
5.950395107,0.0558147430419922,0.0233845710754395,0.963793158531189,0.965691139100257
5.955395107,0.0571918487548828,0.017816424369812,0.910712003707886,0.912679947319409
5.960395107,-0.028386116027832,0.0274045467376709,0.729269623756409,0.730336199909916
5.965395107,-0.123370170593262,0.0266377925872803,0.440167278051376,0.457905015973063
5.970395107,-0.172375679016113,0.0229780673980713,0.172660678625107,0.245057291752151
5.975395107,-0.188124656677246,0.0315388441085815,-0.0291827321052551,0.192969471654882
5.980395107,-0.217452049255371,0.0293142795562744,-0.113326072692871,0.246956513303969
5.985395107,-0.203943252563477,0.0279818773269653,-0.125642627477646,0.24116779545453
5.990395107,-0.165653228759766,0.0236536264419556,-0.136019825935364,0.215642943983515
5.995395107,-0.129671096801758,0.0144641399383545,-0.16196796298027,0.207984195846476
6.000395107,-0.118908882141113,0.0130002498626709,-0.175237357616425,0.212170827996989
6.005395107,-0.101451873779297,0.00487697124481201,-0.184259921312332,0.210399586843416
6.010395107,-0.10345458984375,0.0101972818374634,-0.188356637954712,0.215139628562972
6.015395107,-0.0729866027832031,0.0112892389297485,-0.192338198423386,0.206030273683747
6.020395107,0.0316591262817383,0.00891900062561035,-0.192461580038071,0.195251910720058
6.025395107,0.167574882507324,-0.00739943981170654,-0.175389111042023,0.242687933834753
6.030395107,0.176835060119629,-0.0267645120620728,-0.142893373966217,0.228922462674336
6.035395107,0.15019416809082,0.00215673446655273,-0.126539826393127,0.196405873882773
6.040395107,0.186234474182129,-0.00753509998321533,-0.122661411762238,0.22312749503626
6.045395107,0.375937461853027,-0.0300061702728272,-0.101575344800949,0.390572523547638
6.050395107,0.605104446411133,-0.0686341524124146,-0.05362868309021,0.611341208813772
6.055395107,0.70938777923584,-0.0888346433639526,-0.0223318338394165,0.715277097349963
6.060395107,0.714434623718262,-0.107479095458984,-0.00219446420669556,0.722477268293813
6.065395107,0.692034721374512,-0.0858498811721802,0.0366498231887817,0.698301845354102
6.070395107,0.834132194519043,-0.106438875198364,0.172086447477341,0.858323655442409
6.075395107,1.08109092712402,-0.133461952209473,0.384477347135544,1.15515908681784
6.080395107,1.28062152862549,-0.158740282058716,0.536427915096283,1.39747804448646
6.085395107,1.27558326721191,-0.146156907081604,0.556223511695862,1.39923518682241
6.090395107,1.18795013427734,-0.128298759460449,0.480551719665527,1.28787268333564
6.095395107,1.03386116027832,-0.101911187171936,0.300116419792175,1.08135315888552
6.100395107,0.995447158813477,-0.102336645126343,0.158939272165298,1.01323715247812
6.105395107,1.08962154388428,-0.117831826210022,0.0839037299156189,1.09918118800246
6.110395107,1.13706302642822,-0.130969643592834,0.0575219690799713,1.14602537080982
6.115395107,1.10957336425781,-0.117782354354858,0.0481318533420563,1.11684484552417
6.120395107,0.964228630065918,-0.0975329875946045,0.0252753496170044,0.969478405126276
6.125395107,0.831004142761231,-0.070631742477417,0.00858449935913086,0.834044616289183
6.130395107,0.706871032714844,-0.0475394725799561,-0.0287775099277496,0.709052045637111
6.135395107,0.595623016357422,-0.0223938226699829,-0.0514185428619385,0.598257576181475
6.140395107,0.460552215576172,-0.0194259881973267,-0.0800995528697968,0.46786926663279
6.145395107,0.238533020019531,0.0144007205963135,-0.10886487364769,0.262596540547774
6.150395107,-0.0423526763916016,0.0558916330337524,-0.137663543224335,0.154495550012904
6.155395107,-0.306206703186035,0.086270809173584,-0.135213643312454,0.345670257513361
6.160395107,-0.527676582336426,0.123528003692627,-0.153185158967972,0.563176203483936
6.165395107,-0.698023796081543,0.144908785820007,-0.16523602604866,0.731805110947081
6.170395107,-0.852225303649902,0.155731678009033,-0.158096998929977,0.880644641604855
6.175395107,-0.994172096252441,0.165220499038696,-0.143873244524002,1.01802528493129
6.180395107,-1.13044261932373,0.177957773208618,-0.140373796224594,1.15294158017454
6.185395107,-1.20722007751465,0.184996247291565,-0.132274210453033,1.22845447364459
6.190395107,-1.19908046722412,0.168730616569519,-0.136153012514114,1.21852436605224
6.195395107,-1.12769412994385,0.146353840827942,-0.126778513193131,1.14419678763854
6.200395107,-1.0363245010376,0.128775596618652,-0.0868256390094757,1.04789804719959
6.205395107,-0.970051765441895,0.113998651504517,-0.0884471237659454,0.980723719446131
6.210395107,-0.921607971191406,0.101066589355469,-0.0507195889949799,0.928519350770519
6.215395107,-0.879036903381348,0.103962898254395,0.0287438929080963,0.885629930105817
6.220395107,-0.790349960327148,0.0939112901687622,0.203912883996964,0.82161600183434
6.225395107,-0.702747344970703,0.092260479927063,0.394924193620682,0.811375958311984
6.230395107,-0.672214508056641,0.0917364358901978,0.490739762783051,0.837325165803604
6.235395107,-0.72703742980957,0.0917520523071289,0.489822924137116,0.881435397778482
6.240395107,-0.778556823730469,0.101573348045349,0.382641196250916,0.873431255382328
6.245395107,-0.817306518554688,0.0966829061508179,0.214007988572121,0.850374593215506
6.250395107,-0.78627872467041,0.0955229997634888,0.0858706831932068,0.7967011049228
6.255395107,-0.727662086486816,0.0897902250289917,0.0129420757293701,0.733295229730351
6.260395107,-0.648334503173828,0.0827893018722534,-0.0372799038887024,0.654661353482929
6.265395107,-0.554644584655762,0.0621281862258911,-0.0474613010883331,0.560127754992269
6.270395107,-0.42630672454834,0.0644694566726685,-0.0569426715373993,0.434897921448953
6.275395107,-0.26926326751709,0.0324043035507202,-0.0492171347141266,0.275635760510235
6.280395107,-0.0476894378662109,-0.00976574420928955,-0.0494947135448456,0.0694217466853348
6.285395107,0.179594993591309,-0.0387439727783203,-0.0380789935588837,0.187631199165189
6.290395107,0.36126708984375,-0.0691231489181519,-0.0423780679702759,0.370253724580086
6.295395107,0.49974536895752,-0.0785574913024902,-0.0351558029651642,0.507102202436899
6.300395107,0.603283882141113,-0.0905951261520386,-0.0276587307453156,0.610674974696195
6.305395107,0.744002342224121,-0.0925852060317993,0.00438997149467468,0.749753811234497
6.310395107,0.858479499816895,-0.0843591690063477,0.0658471882343292,0.86512390626989
6.315395107,0.951278686523438,-0.0800278186798096,0.115107327699661,0.961553580455381
6.320395107,1.01815128326416,-0.0537543296813965,0.126929968595505,1.02743991576131
6.325395107,0.967609405517578,-0.0359194278717041,0.122805327177048,0.976032435592062
6.330395107,0.869685173034668,-0.0188623666763306,0.134779542684555,0.880269057844947
6.335395107,0.798606872558594,-0.0211641788482666,0.132117480039597,0.809738160083957
6.340395107,0.753204345703125,-0.00413572788238525,0.159523233771324,0.769923082355666
6.345395107,0.773757934570313,-0.00331234931945801,0.169742256402969,0.792164595634835
6.350395107,0.787739753723145,-0.0110870599746704,0.168748185038567,0.805687776032684
6.355395107,0.786692619323731,-0.0139182806015015,0.160497114062309,0.803018255991521
6.360395107,0.805320739746094,-0.01488196849823,0.161107540130615,0.821412567677483
6.365395107,0.809990882873535,-0.015291690826416,0.170790255069733,0.827942254854385
6.370395107,0.80430793762207,-0.0323467254638672,0.157255738973618,0.820174942686157
6.375395107,0.750264167785645,-0.0369088649749756,0.138483807444572,0.763830053546712
6.380395107,0.65226936340332,-0.0252228975296021,0.133526235818863,0.666273797058174
6.385395107,0.498741149902344,-0.017717719078064,0.107808068394661,0.510567558493711
6.390395107,0.304412841796875,-0.0122061967849731,0.0993409156799316,0.320444670760695
6.395395107,0.110457420349121,0.00855517387390137,0.0750967115163803,0.133841506233192
6.400395107,-0.0723075866699219,0.0363658666610718,0.0511077642440796,0.0957228651580569
6.405395107,-0.276878356933594,0.0580316781997681,0.0502176731824875,0.287317098190816
6.410395107,-0.468843460083008,0.0830380916595459,0.0400346219539642,0.4778203487547
6.415395107,-0.655116081237793,0.124394416809082,0.0248733907938004,0.667285348557284
6.420395107,-0.817743301391602,0.135144352912903,0.00696009397506714,0.82886461258955
6.425395107,-0.940193176269531,0.141736745834351,0.0185597389936447,0.950997885242135
6.430395107,-1.03716087341309,0.166521072387695,0.0298137664794922,1.05086669257325
6.435395107,-1.0884952545166,0.163324236869812,0.0274298191070557,1.10102185283968
6.440395107,-1.08639144897461,0.172018170356751,0.0598642379045486,1.10155361118646
6.445395107,-1.05740356445313,0.176004409790039,0.0576846599578857,1.07350238489636
6.450395107,-1.00656700134277,0.161647200584412,0.0614167153835297,1.02131237071596
6.455395107,-0.962047576904297,0.155054926872253,0.0871201157569885,0.978349367631165
6.460395107,-0.898994445800781,0.136258482933044,0.0625190138816834,0.911408807752376
6.465395107,-0.857494354248047,0.139953374862671,0.0571171939373016,0.870715733489408
6.470395107,-0.789426803588867,0.133839011192322,0.0609594285488129,0.803009097750749
6.475395107,-0.758209228515625,0.145681381225586,0.0456425845623016,0.773425849430688
6.480395107,-0.720759391784668,0.133239150047302,0.0258345007896423,0.733426338075053
6.485395107,-0.685722351074219,0.128491401672363,0.0168066024780273,0.697859330347698
6.490395107,-0.674677848815918,0.10726010799408,-0.013505756855011,0.683284227769091
6.495395107,-0.645499229431152,0.108898997306824,-0.0389293134212494,0.655777201688266
6.500395107,-0.570574760437012,0.105701565742493,-0.0563933253288269,0.583016796833342
6.505395107,-0.485790252685547,0.0925168991088867,-0.0424278080463409,0.496338256757051
6.510395107,-0.333625793457031,0.0803465843200684,-0.0403630137443543,0.345529906882548
6.515395107,-0.149428367614746,0.0671865940093994,-0.0167615413665772,0.164693122903098
6.520395107,0.0523872375488281,0.0331242084503174,0.00522267818450928,0.0622005804705742
6.525395107,0.252786636352539,0.0309604406356812,0.0411099493503571,0.257972208461251
6.530395107,0.445949554443359,0.00890743732452393,0.0481851696968079,0.448633656925817
6.535395107,0.629522323608398,-0.0193275213241577,0.0640498697757721,0.633067369890556
6.540395107,0.786928176879883,-0.0425537824630737,0.0804324150085449,0.792171795353456
6.545395107,0.902880668640137,-0.0610665082931519,0.084900438785553,0.908917325583112
6.550395107,0.962305068969727,-0.0703554153442383,0.0791691541671753,0.968116049451013
6.555395107,0.981792449951172,-0.0777261257171631,0.0417985320091248,0.985750923244935
6.560395107,0.954300880432129,-0.0985933542251587,0.0320102572441101,0.959914306831468
6.565395107,0.90147876739502,-0.106908917427063,0.0216138362884522,0.908053215736046
6.570395107,0.842490196228027,-0.0979982614517212,-0.00647750496864319,0.848195347817069
6.575395107,0.796773910522461,-0.104965806007385,-0.0368726849555969,0.804503623245955
6.580395107,0.758852005004883,-0.106460690498352,-0.0454460978507996,0.767629853465315
6.585395107,0.714594841003418,-0.121014595031738,-0.0884023606777191,0.730140600413913
6.590395107,0.674197196960449,-0.121616005897522,-0.0924631059169769,0.691289909687395
6.595395107,0.655520439147949,-0.115780234336853,-0.0984335839748383,0.672905104199655
6.600395107,0.636014938354492,-0.115348219871521,-0.0961042642593384,0.65349540415096
6.605395107,0.605796813964844,-0.117018938064575,-0.0993293523788452,0.624939622619431
6.610395107,0.566561698913574,-0.115927696228027,-0.103722900152206,0.587528577555644
6.615395107,0.508144378662109,-0.0875239372253418,-0.109339594841003,0.527092303257524
6.620395107,0.414597511291504,-0.0875383615493774,-0.0896711945533752,0.433122366363696
6.625395107,0.311862945556641,-0.0854055881500244,-0.0856586694717407,0.334499654639859
6.630395107,0.190910339355469,-0.0609346628189087,-0.08554407954216,0.217893506902775
6.635395107,0.0518712997436523,-0.0502852201461792,-0.0630514323711395,0.0958890933646675
6.640395107,-0.138943672180176,-0.0145524740219116,-0.0390409529209137,0.145056246139363
6.645395107,-0.294164657592773,0.00562334060668945,0.0116321742534637,0.294448255580018
6.650395107,-0.387846946716309,0.0332677364349365,0.0425377190113068,0.391588373044135
6.655395107,-0.489691734313965,0.0420939922332764,0.0677001476287842,0.496138296069264
6.660395107,-0.582584381103516,0.0445119142532349,0.0643197894096375,0.58781196561992
6.665395107,-0.648631095886231,0.0577934980392456,0.0565000474452972,0.653647184899855
6.670395107,-0.695362091064453,0.0541006326675415,0.0521468222141266,0.699410185235809
6.675395107,-0.740907669067383,0.0508482456207275,0.0245817303657532,0.743057184632073
6.680395107,-0.729305267333984,0.0292742252349854,0.00525581836700439,0.729911485627477
6.685395107,-0.696778297424316,0.0278398990631104,-0.014783650636673,0.697490940491359
6.690395107,-0.68804931640625,0.033043384552002,-0.053573340177536,0.690922448504561
6.695395107,-0.645875930786133,0.0386850833892822,-0.0920165479183197,0.653543647154873
6.700395107,-0.617206573486328,0.0296355485916138,-0.127879232168198,0.631011345472479
6.705395107,-0.532394409179688,0.0365186929702759,-0.17058128118515,0.560245834748294
6.710395107,-0.487055778503418,0.0458844900131226,-0.185022950172424,0.523031748451126
6.715395107,-0.420853614807129,0.0468318462371826,-0.192728042602539,0.465247337793153
6.720395107,-0.356327056884766,0.0461347103118897,-0.166994541883469,0.39621277109981
6.725395107,-0.328100204467773,0.0562965869903564,-0.16939589381218,0.373515754311628
6.730395107,-0.284098625183105,0.0573077201843262,-0.149075388908386,0.325913600823657
6.735395107,-0.215813636779785,0.0533242225646973,-0.139005929231644,0.262186282810141
