Time (s),Linear Acceleration x (m/s^2),Linear Acceleration y (m/s^2),Linear Acceleration z (m/s^2),Absolute acceleration (m/s^2)
0.015080112,0,0,0,0
0.020080112,-0.0135612487792969,-0.00118780136108398,0.0170356631278992,0.0218066998588653
0.025080112,-0.0514364242553711,0.00184142589569092,0.0298085510730743,0.0594781161990184
0.030080112,-0.0955705642700195,0.0125542879104614,0.0514296591281891,0.109253616589431
0.035080112,-0.121016502380371,0.0218205451965332,0.0504723787307739,0.132923252502318
0.040080112,-0.141812324523926,0.0321803092956543,0.0689598619937897,0.160940269228822
0.045080112,-0.174659729003906,0.0248596668243408,0.0585626065731049,0.185885994251776
0.050080112,-0.176260948181152,0.0243115425109863,0.0649210512638092,0.189403579296117
0.055080112,-0.180652618408203,0.031906008720398,0.0661306977272034,0.195004182293849
0.060080112,-0.174993515014648,0.0267138481140137,0.0752883851528168,0.19236605968091
0.065080112,-0.142281532287598,0.0516949892044067,0.0696766376495361,0.166647052698496
0.070080112,-0.0983314514160156,0.0219181776046753,0.0859842896461487,0.132449155954438
0.075080112,-0.052886962890625,0.0085148811340332,0.0593637228012085,0.079959900133378
0.080080112,-0.0111303329467773,0.00176167488098145,0.0393056571483612,0.0408891488509717
0.085080112,0.0364875793457031,-0.0109384059906006,0.0173123776912689,0.0418414936809064
0.090080112,0.0658464431762695,-0.0131708383560181,-0.0270702242851257,0.072401810093485
0.095080112,0.0782394409179688,-0.0135411024093628,-0.044180303812027,0.0908662248282616
0.100080112,0.0589075088500977,-0.0101839303970337,-0.0914554595947266,0.109260734607354
0.105080112,0.0157146453857422,-0.0110512971878052,-0.142739504575729,0.144026551078811
0.110080112,-0.0647459030151367,-0.000945925712585449,-0.168846160173416,0.180836811899586
0.115080112,-0.16844367980957,0.012505054473877,-0.204369425773621,0.265134893679091
0.120080112,-0.273808479309082,0.0299957990646362,-0.196537852287292,0.338375469980877
0.125080112,-0.348639488220215,0.0348277091979981,-0.202980637550354,0.404924192034487
0.130080112,-0.398920059204102,0.0540314912796021,-0.194311082363129,0.447004935559365
0.135080112,-0.468481063842773,0.0547760725021362,-0.176512598991394,0.503618529147521
0.140080112,-0.494211196899414,0.0600874423980713,-0.151020288467407,0.520252184429313
0.145080112,-0.483309745788574,0.0562090873718262,-0.12224555015564,0.501688894047142
0.150080112,-0.454858779907227,0.0603636503219605,-0.0879572033882141,0.467200973422315
0.155080112,-0.373397827148438,0.0578857660293579,-0.0629652738571167,0.383068303230484
0.160080112,-0.293359756469727,0.0476884841918945,-0.028878390789032,0.298610280625202
0.165080112,-0.213119506835938,0.0309889316558838,-0.00200951099395752,0.215370091269891
0.170080112,-0.112031936645508,0.0109889507293701,0.0195372104644775,0.114252415551746
0.175080112,-0.00786876678466797,0.00201821327209473,0.0423504710197449,0.04312253553674
0.180080112,0.0822162628173828,-0.000877261161804199,0.0492520928382874,0.095843894473014
0.185080112,0.165148735046387,-0.00477373600006104,0.0701043009757996,0.179475642520442
0.190080112,0.223531723022461,-0.0166969299316406,0.061040997505188,0.232317072215885
0.195080112,0.257593154907227,-0.0212514400482178,0.0578760802745819,0.264868831362113
0.200080112,0.283073425292969,-0.0374283790588379,0.0483770370483398,0.289606259220415
0.205080112,0.294177055358887,-0.0348669290542603,0.045144259929657,0.299656214428963
0.210080112,0.312398910522461,-0.0370302200317383,0.0440587103366852,0.317656239428335
0.215080112,0.288285255432129,-0.038377046585083,0.0207908153533936,0.291570650455804
0.220080112,0.240913391113281,-0.0251133441925049,0.0260639190673828,0.243617055953361
0.225080112,0.182287216186523,-0.0218119621276855,0.0247266292572022,0.185245234949013
0.230080112,0.127374649047852,-0.0144176483154297,0.0107346773147583,0.12863670976849
0.235080112,0.0775051116943359,-0.00469017028808594,0.00995391607284546,0.0782823126974924
0.240080112,0.00876426696777344,0.00810658931732178,-0.0108718872070313,0.0161470460854154
0.245080112,-0.0241022109985352,0.00641405582427979,0.0132068395614624,0.0282219293872176
0.250080112,-0.0846223831176758,0.018572211265564,0.00963681936264038,0.0871707694312469
0.255080112,-0.131973266601563,0.0188193321228027,0.00661289691925049,0.133472247170339
0.260080112,-0.169305801391602,0.0148603916168213,0.0102075934410095,0.17026297479991
0.265080112,-0.191058158874512,0.0241724252700806,-0.00410771369934082,0.192625023109127
0.270080112,-0.199969291687012,0.0298699140548706,0.00535145401954651,0.202258664693441
0.275080112,-0.211905479431152,0.0265194177627563,0.00611129403114319,0.213645874395358
0.280080112,-0.214340209960938,0.0308388471603394,0.0168649256229401,0.21720309808229
0.285080112,-0.214579582214355,0.0217181444168091,0.0279361605644226,0.217477594173004
0.290080112,-0.202022552490234,0.0314195156097412,0.0265524089336395,0.206168203406829
0.295080112,-0.187050819396973,0.0370826721191406,0.0440517365932465,0.195713282905007
0.300080112,-0.173490524291992,0.0129612684249878,0.0624412596225739,0.184840113074918
0.305080112,-0.145800590515137,0.0165519714355469,0.0664973556995392,0.161101453339182
0.310080112,-0.129129409790039,0.0266350507736206,0.0628274381160736,0.146051762682503
0.315080112,-0.114974021911621,0.0133460760116577,0.0702947378158569,0.135419694372875
0.320080112,-0.109889984130859,0.0186238288879395,0.076790452003479,0.135349285678301
0.325080112,-0.0822525024414063,-0.000599980354309082,0.0803892314434052,0.115014184631116
0.330080112,-0.0674400329589844,0.0102174282073975,0.0669248104095459,0.0955587993490703
0.335080112,-0.0563526153564453,0.00211417675018311,0.0874366760253906,0.104044506415339
0.340080112,-0.0410957336425781,0.000531673431396484,0.0957737565040588,0.104219741100994
0.345080112,-0.00739669799804688,-0.00319302082061768,0.0940447747707367,0.0943892270596269
0.350080112,0.0190296173095703,-0.0126615762710571,0.104652464389801,0.107119466725125
0.355080112,0.0407981872558594,0.00687587261199951,0.0897220969200134,0.0988019452402881
0.360080112,0.0552902221679688,-0.000894427299499512,0.102803707122803,0.1167322186278
0.365080112,0.141339302062988,-0.0202889442443848,0.259923994541168,0.296561835886619
0.370080112,0.292288780212402,-0.0387635231018066,0.796678900718689,0.849489618895756
0.375080112,0.357436180114746,-0.0382200479507446,1.27365434169769,1.32341103858392
0.380080112,0.105673789978027,-0.0474945306777954,1.48345160484314,1.48796886534776
0.385080112,-0.249505996704102,-0.00698935985565186,1.38010454177856,1.40249443484825
0.390080112,-0.329446792602539,0.0518368482589722,1.16408598423004,1.21091635824872
0.395080112,-0.241357803344727,0.0794061422348023,0.929121613502502,0.963237196819921
0.400080112,-0.109109878540039,0.0673145055770874,0.64149796962738,0.654183348375791
0.405080112,0.0165395736694336,0.0425482988357544,0.373487889766693,0.376267350474846
0.410080112,0.110807418823242,0.0127809047698975,0.139327451586723,0.178476257128665
0.415080112,0.165943145751953,-0.00726175308227539,-0.0351838171482086,0.169787401384792
0.420080112,0.153142929077148,-0.0306637287139893,-0.0733323991298676,0.172541768123304
0.425080112,0.100261688232422,-0.0184179544448853,-0.0692095756530762,0.123213605317059
0.430080112,0.0500736236572266,-0.0164729356765747,-0.0721123218536377,0.0893247578171515
0.435080112,0.0137434005737305,-0.0153059959411621,-0.0838618278503418,0.086347905252422
0.440080112,-0.0158319473266602,-0.005959153175354,-0.0781054496765137,0.0799163520932474
0.445080112,-0.0567550659179688,0.0126750469207764,-0.0843764245510101,0.102475242579899
0.450080112,-0.0868921279907227,0.0300064086914063,-0.0768170058727264,0.11979765799281
0.455080112,-0.0983972549438477,0.0330054759979248,-0.0681390464305878,0.124154383228318
0.460080112,-0.139402389526367,0.0319738388061523,-0.0461738407611847,0.150290971599435
0.465080112,-0.181500434875488,0.0409926176071167,-0.0329956710338593,0.188974910676654
0.470080112,-0.216855049133301,0.0392559766769409,-0.0352767407894135,0.223185108105784
0.475080112,-0.226057052612305,0.0333707332611084,-0.00953537225723267,0.228705750251782
0.480080112,-0.244526863098145,0.0356143712997437,-0.00232678651809692,0.247117753622024
0.485080112,-0.219184875488281,0.0257545709609985,0.018073707818985,0.221431629363387
0.490080112,-0.174304962158203,0.023479700088501,0.0280264914035797,0.178098288508378
0.495080112,-0.0997772216796875,0.0208686590194702,0.0276125371456146,0.105609881654163
0.500080112,-0.0187215805053711,0.0102078914642334,0.0358642041683197,0.0417245702840854
0.505080112,0.0462980270385742,0.00122237205505371,0.0238833725452423,0.0521096630697259
0.510080112,0.101181030273438,-0.0120238065719605,0.0186069011688232,0.103577939653097
0.515080112,0.128613471984863,-0.0199223756790161,0.0103694200515747,0.130559760649685
0.520080112,0.167008399963379,-0.0175904035568237,0.0111804008483887,0.168303978915385
0.525080112,0.17010498046875,-0.0241414308547974,-0.00133022665977478,0.171814675062863
0.530080112,0.15616512298584,-0.0386588573455811,-0.0107226371765137,0.161235938414696
0.535080112,0.148617744445801,-0.020673394203186,-0.0183654129505157,0.151168487406869
0.540080112,0.124663352966309,-0.0245907306671143,-0.00318378210067749,0.127105436846775
0.545080112,0.0963230133056641,-0.0213974714279175,-0.0376483201980591,0.105609519881151
0.550080112,0.0633020401000977,-0.0150057077407837,-0.0439312160015106,0.0785001355731796
0.555080112,0.0310592651367188,-0.000831007957458496,-0.0412205457687378,0.0516188136102619
0.560080112,0.00359439849853516,0.00438332557678223,-0.0630443692207336,0.0632987024678905
0.565080112,-0.0328521728515625,0.00583779811859131,-0.094924658536911,0.100618268452064
0.570080112,-0.0537281036376953,0.017263650894165,-0.101900577545166,0.116483777697742
0.575080112,-0.095637321472168,0.0199340581893921,-0.110216706991196,0.147280638354985
0.580080112,-0.110230445861816,0.0222768783569336,-0.109765708446503,0.157148087022996
0.585080112,-0.105011940002441,0.0125340223312378,-0.0912852883338928,0.139705451307665
0.590080112,-0.0832500457763672,0.0146708488464355,-0.087573379278183,0.121716476640768
0.595080112,-0.0972204208374023,0.0281907320022583,-0.0803103148937225,0.129214063773854
0.600080112,-0.0632810592651367,0.0176315307617188,-0.082873672246933,0.10575163776704
0.605080112,-0.0482873916625977,0.0141211748123169,-0.0691650211811066,0.08552707130868
0.610080112,-0.0261096954345703,0.00432038307189941,-0.0619852840900421,0.0673984966397412
0.615080112,-0.0146312713623047,0.00231099128723145,-0.0624158382415772,0.064149447743576
0.620080112,-0.00506782531738281,0.0197213888168335,-0.0302510261535645,0.0364656086423341
0.625080112,-0.00379467010498047,0.0143603086471558,-0.0245693027973175,0.028710078815522
0.630080112,0.00464630126953125,-0.00363755226135254,-0.012804388999939,0.0140986623338201
0.635080112,0.00432395935058594,0.0102534294128418,-0.00382322072982788,0.011766327206849
0.640080112,-0.00151538848876953,0.0102219581604004,-0.00311464071273804,0.0107928595689148
0.645080112,-0.00554943084716797,-0.00655221939086914,0.00371313095092773,0.0093549507284816
0.650080112,-0.0276069641113281,0.0108228921890259,0.0102334320545197,0.0313688156358175
0.655080112,-0.0304555892944336,0.00921392440795898,-0.00460553169250488,0.0321504314813576
0.660080112,-0.0467720031738281,0.0186616182327271,0.0120431780815125,0.0517775473951757
0.665080112,-0.0545492172241211,0.0235748291015625,0.0164265036582947,0.0616540322231093
0.670080112,-0.0512552261352539,0.0207157135009766,0.0147328078746796,0.057212713795998
0.675080112,-0.0691394805908203,0.0154750347137451,0.00604936480522156,0.0711079411198685
0.680080112,-0.0600662231445313,0.0064772367477417,0.00443461537361145,0.0605769888014152
0.685080112,-0.0421590805053711,0.0135794878005981,-0.0316223204135895,0.0544220700297653
0.690080112,-0.016688346862793,0.00322878360748291,-0.0268294811248779,0.0317607780450515
0.695080112,0.0125198364257813,0.00922143459320068,-0.0345616042613983,0.0378983594527059
0.700080112,0.0377321243286133,0.00232696533203125,-0.046879768371582,0.0602232567749336
0.705080112,0.0614709854125977,-0.00590133666992188,-0.0439020991325378,0.0757687411161802
0.710080112,0.0832557678222656,-0.0030292272567749,-0.058903694152832,0.102031094663826
0.715080112,0.0878772735595703,-0.0124315023422241,-0.0424346327781677,0.0983750756938272
0.720080112,0.109817504882813,-0.00876569747924805,-0.0592890977859497,0.125107629452628
0.725080112,0.100480079650879,-0.00664699077606201,-0.0596080422401428,0.117019432543175
0.730080112,0.104628562927246,-0.016435980796814,-0.06863734126091,0.12620761569866
0.735080112,0.0960197448730469,0.000921487808227539,-0.0737993717193604,0.121107340039479
0.740080112,0.070042610168457,-0.00271105766296387,-0.0727772414684296,0.101043772438565
0.745080112,0.0276193618774414,0.00462579727172852,-0.0911038219928742,0.0953107209742193
0.750080112,-0.0210409164428711,-0.00386631488800049,-0.0715287923812866,0.0746594715698837
0.755080112,-0.0447044372558594,0.014751672744751,-0.057464987039566,0.0742854177789207
0.760080112,-0.0809078216552734,0.0171871185302734,-0.0428358018398285,0.0931470802958217
0.765080112,-0.103206634521484,0.0123291015625,-0.0416159927845001,0.111962078446362
0.770080112,-0.113424301147461,0.0167089700698853,0.00484368205070496,0.11475069946364
0.775080112,-0.0485944747924805,0.00474011898040772,0.340777039527893,0.344257000477406
0.780080112,-0.00668811798095703,0.00448155403137207,0.62512081861496,0.625172658642795
0.785080112,-0.0341567993164063,-0.017922043800354,0.848444700241089,0.849321079427983
0.790080112,-0.175350189208984,-0.0109782218933105,0.907010674476624,0.92387043129765
0.795080112,-0.310476303100586,0.00302278995513916,0.817325353622437,0.874314248837431
0.800080112,-0.256196975708008,0.041656494140625,0.66703724861145,0.715758929319887
0.805080112,-0.128890991210938,0.0485299825668335,0.496311008930206,0.515065689411161
0.810080112,-0.0846271514892578,0.0563483238220215,0.282794117927551,0.300515226737613
0.815080112,-0.0577926635742188,0.0401740074157715,0.0966409891843796,0.119555107065239
0.820080112,0.00271797180175781,0.0203495025634766,-0.0675389766693115,0.0705903888276152
0.825080112,0.0566005706787109,0.013442873954773,-0.147404491901398,0.15846898653689
0.830080112,0.0857076644897461,0.0118644237518311,-0.14023619890213,0.164780944850331
0.835080112,0.0996284484863281,0.00119686126708984,-0.167267680168152,0.19469395741399
0.840080112,0.0820837020874023,0.00117361545562744,-0.170321762561798,0.18907303965338
0.845080112,0.0700540542602539,0.0044865608215332,-0.152773320674896,0.168129079151522
0.850080112,0.0533294677734375,-0.000596284866333008,-0.137864977121353,0.14782130971315
0.855080112,0.0305299758911133,-0.0140491724014282,-0.122787714004517,0.127303893827062
0.860080112,0.0411014556884766,0.00489354133605957,-0.103145122528076,0.111140418875634
0.865080112,0.0195026397705078,0.0111774206161499,-0.0941532552242279,0.0967993964803868
0.870080112,0.00641155242919922,0.0173331499099731,-0.0894356071949005,0.0913251001897864
0.875080112,-0.00779628753662109,0.0176901817321777,-0.0727769732475281,0.0753008131705267
0.880080112,-0.0301780700683594,0.0158402919769287,-0.0444189310073853,0.0559881433412826
0.885080112,-0.0259418487548828,0.0112118721008301,-0.0310030281543732,0.0419508444201954
0.890080112,-0.0177059173583984,0.0175734758377075,-0.0130261182785034,0.0281426068431211
0.895080112,0.00412750244140625,-0.000711441040039063,-0.00563612580299377,0.00702198966279776
0.900080112,-0.00854206085205078,0.00907492637634277,0.0134778022766113,0.0183568038215701
0.905080112,0.000322341918945313,-0.000365972518920898,0.0243400931358337,0.0243449784156482
0.910080112,-0.00338935852050781,0.00817775726318359,0.0192870497703552,0.0212215398564819
0.915080112,0.0250463485717773,0.0118006467819214,0.0191657245159149,0.0336734292502351
0.920080112,0.0182552337646484,0.0160304307937622,-0.00484940409660339,0.0247738771961055
0.925080112,0.0293588638305664,0.014264702796936,-0.017658144235611,0.0371111127447332
0.930080112,0.0295219421386719,0.0107079744338989,-0.0147615373134613,0.0347002704308314
0.935080112,0.0277986526489258,0.00772321224212647,-0.0226505100727081,0.0366804948574363
0.940080112,0.0237436294555664,0.0137650966644287,-0.0316082835197449,0.0418607383232652
0.945080112,0.0265073776245117,0.00218641757965088,-0.0323927700519562,0.0419131607254807
0.950080112,-0.00314617156982422,0.0260255336761475,-0.0493924915790558,0.0559181993903787
0.955080112,-0.0154953002929688,0.0264432430267334,-0.050694465637207,0.059239161702223
0.960080112,-0.0272970199584961,0.0268670320510864,-0.0586143136024475,0.0700185865962367
0.965080112,-0.0325002670288086,0.0303441286087036,-0.0497094094753265,0.0666937694867451
0.970080112,-0.0299158096313477,0.0283282995223999,-0.0560974180698395,0.0696014980717527
0.975080112,-0.0428991317749023,0.0370360612869263,-0.0434722304344177,0.071427166831903
0.980080112,-0.0396099090576172,0.0282977819442749,0.017535924911499,0.0517418401394864
0.985080112,-0.0123872756958008,0.027381420135498,0.166382610797882,0.16907501277161
0.990080112,0.0194053649902344,0.00581109523773193,0.284491270780563,0.285211535826667
0.995080112,0.00636005401611328,-0.00269746780395508,0.372632443904877,0.372696478210034
1.000080112,-0.0485496520996094,-0.000921845436096191,0.403903543949127,0.406811985237242
1.005080112,-0.0849027633666992,-0.00569057464599609,0.393043637275696,0.402149428285074
1.010080112,-0.0854167938232422,-0.0179339647293091,0.334786415100098,0.345976299034384
1.015080112,-0.064178466796875,-0.0067601203918457,0.248724311590195,0.256959837336744
1.020080112,-0.0345973968505859,0.0041964054107666,0.153293997049332,0.157205722601211
1.025080112,-0.0162315368652344,0.0116869211196899,0.0527520179748535,0.056416507466207
1.030080112,0.0125532150268555,-0.0119001865386963,-0.026190847158432,0.0313872286454632
1.035080112,0.0122137069702148,0.00300467014312744,-0.0683887898921967,0.0695358128128398
1.040080112,0.0111351013183594,0.00571644306182861,-0.0754227936267853,0.0764543393217017
1.045080112,0.00903129577636719,0.0169302225112915,-0.0655777454376221,0.0683274281263654
1.050080112,0.0119190216064453,0.0116071701049805,-0.0748311579227448,0.07665827854811
1.055080112,0.0152034759521484,0.00388514995574951,-0.0743279457092285,0.075966331914607
1.060080112,0.00802993774414063,0.00264871120452881,-0.0772585868835449,0.0777199126251569
1.065080112,-0.00238323211669922,0.0125298500061035,-0.0811401009559631,0.0821364287003118
1.070080112,0.00423431396484375,0.0160044431686401,-0.0769006907939911,0.0786624933528307
1.075080112,0.00215721130371094,0.012338399887085,-0.0824527442455292,0.0833987092586038
1.080080112,-0.00687026977539063,0.0123482942581177,-0.0727187097072601,0.0740789559818473
1.085080112,-0.00968456268310547,0.0123336315155029,-0.0686398446559906,0.0704083623948301
1.090080112,-0.0164318084716797,0.0036466121673584,-0.0731035172939301,0.075016173927314
1.095080112,-0.01129150390625,0.00230991840362549,-0.0804078876972199,0.0812296878451776
1.100080112,-0.00243949890136719,-0.00101661682128906,-0.0648203790187836,0.0648742337202518
1.105080112,-0.00836753845214844,0.000390172004699707,-0.0780676603317261,0.0785157788193634
1.110080112,-0.0138492584228516,0.00291848182678223,-0.0667188167572022,0.0682035190039143
1.115080112,-0.00101470947265625,-0.0114122629165649,-0.0631825923919678,0.0642129999420697
1.120080112,0.0200376510620117,-0.00422894954681397,-0.0711565613746643,0.0740449032750993
1.125080112,0.0454654693603516,-0.00429069995880127,-0.00586673617362976,0.0460427801465604
1.130080112,0.0506868362426758,-0.014217734336853,0.100230008363724,0.113213753204093
1.135080112,0.0247840881347656,-0.0154432058334351,0.158152461051941,0.160825820588211
1.140080112,-0.0270872116088867,-0.00097203254699707,0.190130114555359,0.192052394780307
1.145080112,-0.0507984161376953,0.00289452075958252,0.198308601975441,0.204731919714489
1.150080112,-0.0634574890136719,0.00636839866638184,0.184265226125717,0.194989956081476
1.155080112,-0.0532464981079102,0.0118743181228638,0.175514593720436,0.183797610431932
1.160080112,-0.0416765213012695,0.0199666023254395,0.141667798161507,0.149014639120211
1.165080112,-0.0221872329711914,0.0188745260238647,0.118741497397423,0.122262276454046
1.170080112,-0.00146293640136719,0.00868594646453857,0.0661172270774841,0.0667013760376417
1.175080112,0.0205650329589844,0.0103352069854736,0.0215813815593719,0.0315514360061138
1.180080112,0.0187177658081055,0.0148739814758301,-0.0171637833118439,0.0294310302124535
1.185080112,0.0272855758666992,0.0000631809234619141,-0.0412276387214661,0.049439102305303
1.190080112,0.0215377807617188,-0.00235235691070557,-0.0599242150783539,0.0637206492114763
1.195080112,0.0181007385253906,-0.00103271007537842,-0.0599749088287354,0.0626553502446476
1.200080112,0.0148696899414063,-0.0000442266464233398,-0.0537417829036713,0.0557609977010378
1.205080112,0.00918674468994141,0.00205063819885254,-0.0463236272335053,0.0472702849059481
1.210080112,-0.00587558746337891,-0.0163993835449219,-0.0106188952922821,0.0204015500862489
1.215080112,-0.00525569915771484,-0.0154114961624146,0.0103876292705536,0.0193142286789554
1.220080112,0.00185203552246094,-0.0142346620559692,0.0357966721057892,0.0385675689313378
1.225080112,-0.00138187408447266,-0.0227607488632202,0.0535224974155426,0.0581774784121543
1.230080112,-0.0236530303955078,-0.0185902118682861,0.0643340647220612,0.0710206569095284
1.235080112,-0.0257787704467773,-0.0194416046142578,0.0731299519538879,0.0799406709285251
1.240080112,-0.0249910354614258,-0.0200872421264648,0.0651245713233948,0.0725896613832672
1.245080112,-0.0316591262817383,0.00104951858520508,0.0335612297058106,0.0461493001631652
1.250080112,-0.0181484222412109,0.0105730295181274,0.00963437557220459,0.0231079072116617
1.255080112,-0.0125102996826172,0.0118849277496338,-0.018353283405304,0.02519131035731
1.260080112,-0.010188102722168,0.00927793979644775,-0.0366100370883942,0.0391174183651932
1.265080112,0.0103359222412109,0.0141053199768066,-0.0359744131565094,0.0399993717723128
1.270080112,0.0185737609863281,0.00525879859924316,-0.0317499339580536,0.0371577430184532
1.275080112,0.0247478485107422,-0.00503647327423096,-0.0465430617332459,0.0529535519531733
1.280080112,0.0185651779174805,-0.00337231159210205,-0.0476307272911072,0.0512320651434407
1.285080112,0.0171213150024414,0.00323963165283203,-0.0487694144248962,0.0517889025178767
1.290080112,-0.00173568725585938,0.0082327127456665,-0.0363147556781769,0.0372766904293889
1.295080112,-0.00988101959228516,-0.00125396251678467,-0.0278010964393616,0.0295314736071078
1.300080112,-0.0334596633911133,0.00727713108062744,-0.0265791416168213,0.0433469316111104
1.305080112,-0.0240974426269531,0.0142441987991333,0.0081707239151001,0.0291606699148925
1.310080112,-0.0331535339355469,0.0162632465362549,0.0348789691925049,0.050795595205157
1.315080112,-0.0391473770141602,0.0104750394821167,0.0484473407268524,0.0631616054478069
1.320080112,-0.0221061706542969,0.00565528869628906,0.0674485564231873,0.0712037417191481
1.325080112,-0.0052337646484375,-0.00120687484741211,0.0877805650234222,0.087944735118845
1.330080112,-0.0217218399047852,-0.000906586647033691,0.0877256244421005,0.0903794523769322
1.335080112,-0.0106840133666992,0.00548851490020752,0.0876210033893585,0.08844044421184
1.340080112,-0.0157976150512695,-0.005790114402771,0.0743302702903748,0.07621075480236
1.345080112,-0.015681266784668,-0.00587964057922363,0.0485144257545471,0.0513236963556431
1.350080112,-0.0103788375854492,-0.00567114353179932,0.0246836841106415,0.0273709042572096
1.355080112,0.00955390930175781,-0.0114178657531738,0.0310389399528503,0.0344247096531019
1.360080112,0.0207881927490234,-0.00280702114105225,-0.00265666842460632,0.0211444132710077
1.365080112,0.0210752487182617,-0.0109598636627197,-0.020240992307663,0.0312086925333451
1.370080112,0.00834083557128906,-0.0151331424713135,-0.0288008749485016,0.0335867821751888
1.375080112,0.00267696380615234,-0.0127404928207397,-0.0354358851909637,0.0377516655500381
1.380080112,-0.00294399261474609,-0.00163018703460693,-0.041211873292923,0.0413490399235027
1.385080112,0.0139541625976563,-0.00181460380554199,-0.0281371176242828,0.0314596380935262
1.390080112,0.0189990997314453,-0.00253474712371826,-0.0277098119258881,0.0336930914365941
1.395080112,0.00508022308349609,-0.00656402111053467,-0.0037769079208374,0.00911921450346002
1.400080112,-0.0230064392089844,-0.00416731834411621,0.00536051392555237,0.0239874529036316
1.405080112,-0.016087532043457,0.00150084495544434,0.0266814231872559,0.031192299789002
1.410080112,-0.00512790679931641,-0.000472426414489746,0.0325968563556671,0.0330011160285767
1.415080112,0.00504398345947266,0.00321757793426514,0.0320735573768616,0.0326267935860902
1.420080112,-0.0217151641845703,-0.0115435123443604,0.0167103409767151,0.0297327517792304
1.425080112,-0.0419979095458984,-0.0111963748931885,0.00857627391815186,0.0443027729526433
1.430080112,-0.0325822830200195,-0.00821530818939209,0.0129593014717102,0.0360144408547185
1.435080112,-0.00703907012939453,-0.000391364097595215,0.023653119802475,0.0246814049546142
1.440080112,0.00911140441894531,0.00772428512573242,0.00690853595733643,0.0137989180830599
1.445080112,0.00135517120361328,0.0121307373046875,-0.0215514600276947,0.0247680581772525
1.450080112,-0.00977134704589844,0.00161063671112061,-0.00387701392173767,0.0106350651458252
1.455080112,-0.00986194610595703,-0.00105345249176025,-0.0339662730693817,0.0353846781725227
1.460080112,0.00611686706542969,-0.00520038604736328,-0.0373958349227905,0.038247987493597
1.465080112,0.018773078918457,-0.00609672069549561,-0.00893309712409973,0.0216656114510092
1.470080112,0.0248937606811523,-0.00694835186004639,-0.0111605823040009,0.0281520427639962
1.475080112,-0.00866603851318359,-0.0122780799865723,0.00450587272644043,0.0156893072089091
1.480080112,-0.0192432403564453,-0.00357019901275635,-0.000423461198806763,0.0195762085142529
1.485080112,-0.00517559051513672,-0.00400006771087647,0.0112904012203217,0.0130483883521227
1.490080112,-0.00325965881347656,0.00232887268066406,0.0379496514797211,0.0381605171738449
1.495080112,0.00461006164550781,0.0024944543838501,0.0326769649982452,0.0330946976500018
1.500080112,-0.0143871307373047,-0.0136746168136597,0.0408221185207367,0.0453919600411108
1.505080112,-0.0177125930786133,0.0213248729705811,0.0437628626823425,0.0518041920208541
1.510080112,-0.0193061828613281,0.00765359401702881,0.0597609281539917,0.0632666952817918
1.515080112,-0.00780391693115234,0.0212881565093994,0.0435446500778198,0.0490940248649139
1.520080112,0.00509548187255859,0.00707077980041504,0.0351268351078033,0.036191910797723
1.525080112,-0.0111446380615234,0.00942468643188477,0.0289686918258667,0.0324378294274408
1.530080112,-0.0220203399658203,-0.000491738319396973,0.010263204574585,0.0242995997276673
1.535080112,-0.0161495208740234,0.00269985198974609,-0.00181785225868225,0.0164742469345779
1.540080112,0.000851631164550781,0.00699687004089356,-0.0211552381515503,0.022298555272896
1.545080112,0.000821113586425781,0.00489711761474609,-0.0107193887233734,0.0118136058448407
1.550080112,0.00651741027832031,0.00184237957000732,-0.0119858384132385,0.0137670375057308
1.555080112,-0.00403118133544922,0.00170588493347168,-0.0289368033409119,0.0292660050904822
1.560080112,-0.0121345520019531,-0.00265920162200928,-0.0283529758453369,0.0309549664002541
1.565080112,0.00713825225830078,-0.00792312622070313,-0.0218262076377869,0.0242922603777441
1.570080112,0.0135078430175781,-0.00677883625030518,-0.0171648561954498,0.0228702149554056
1.575080112,0.00618362426757813,-0.0110067129135132,-0.00536036491394043,0.0137156279569578
1.580080112,-0.00498485565185547,-0.0109208822250366,-0.0100228488445282,0.0156387964179862
1.585080112,-0.00569343566894531,0.00784564018249512,-0.00968748331069946,0.0137046201145702
1.590080112,-0.0164995193481445,0.0112624168395996,0.0140129923820496,0.0244016418973821
1.595080112,0.0135278701782227,0.00691080093383789,0.0151358544826508,0.0214442657143107
1.600080112,-0.0105800628662109,0.00867342948913574,0.00785696506500244,0.0157765018108785
1.605080112,-0.0236644744873047,0.00166213512420654,0.00939196348190308,0.0255142905834518
1.610080112,-0.0315122604370117,0.00451493263244629,0.00959834456443787,0.0332495923719864
1.615080112,-0.00181007385253906,0.00264942646026611,0.0113967657089233,0.0118398520490796
1.620080112,0.00671768188476563,0.0149569511413574,0.0202897787094116,0.0260866394429554
1.625080112,0.00975608825683594,0.00719690322875977,0.00275281071662903,0.0124320006837553
1.630080112,-0.00698757171630859,0.0141525268554688,0.00974345207214356,0.0185487205264266
1.635080112,-0.0127716064453125,0.010589599609375,0.00848186016082764,0.0186331828432144
1.640080112,-0.00157642364501953,0.00744938850402832,0.026011049747467,0.0271026421139661
1.645080112,0.0133056640625,0.0017547607421875,0.0159320533275604,0.0208314714947998
1.650080112,0.00690460205078125,0.00535118579864502,0.0157563388347626,0.0180158522531442
1.655080112,-0.0191535949707031,-0.000545263290405273,0.012665182352066,0.0229687691522357
1.660080112,-0.026921272277832,-0.0014345645904541,0.0211808681488037,0.034284720389094
1.665080112,-0.0123281478881836,0.0081557035446167,0.0214534401893616,0.0260528084209575
1.670080112,0.00807762145996094,0.000610113143920898,0.0186926424503326,0.0203724099770936
1.675080112,0.0279960632324219,0.000575780868530273,0.0289423167705536,0.040271190448873
1.680080112,-0.0118551254272461,-0.00877785682678223,0.0176708698272705,0.0230185666326025
1.685080112,-0.021026611328125,-0.00181686878204346,0.013079434633255,0.0248292369282825
1.690080112,-0.00908851623535156,0.00702834129333496,0.00874981284141541,0.0144415350103666
1.695080112,0.00927257537841797,0.00295650959014893,0.00432136654853821,0.0106487469662825
1.700080112,0.0115633010864258,-0.00102353096008301,0.0221247375011444,0.0249852267777607
1.705080112,-0.000476837158203125,0.00784933567047119,0.00855353474617004,0.0116190533520211
1.710080112,-0.0171842575073242,-0.00882577896118164,-0.00927478075027466,0.0214292939294633
1.715080112,-0.0299081802368164,-0.000237107276916504,0.00510749220848084,0.030342082024778
1.720080112,-0.000742912292480469,-0.00247955322265625,0.00689518451690674,0.00736503037200078
1.725080112,0.00235176086425781,-0.00427520275115967,0.0174000263214111,0.0180712216994861
1.730080112,-0.0009307861328125,0.00761091709136963,0.017410159111023,0.0190238287962196
1.735080112,-0.0146274566650391,-0.00546836853027344,0.00189408659934998,0.0157306422919192
1.740080112,-0.0301542282104492,0.00978982448577881,0.0180399119853973,0.0364767949095187
1.745080112,-0.00577831268310547,-0.00029301643371582,0.00491759181022644,0.0075932513000803
1.750080112,0.0135354995727539,0.00608682632446289,0.0167025029659271,0.0223435182707424
1.755080112,0.00746917724609375,-0.00118350982666016,0.00587010383605957,0.00957326607221836
1.760080112,-0.00606250762939453,0.00880157947540283,0.0152280032634735,0.0186041361909297
1.765080112,-0.0114774703979492,-0.00243961811065674,0.00758767127990723,0.013973432603107
1.770080112,0.00409126281738281,0.00537109375,0.00594687461853027,0.00899735501359749
1.775080112,0.0286827087402344,0.00426435470581055,0.00973328948020935,0.0305878967214099
1.780080112,0.0265588760375977,-0.00126898288726807,0.0259037911891937,0.0371212959353793
1.785080112,-0.00940704345703125,-0.00408935546875,0.0148546993732452,0.0180520743467825
1.790080112,-0.0224733352661133,0.00984382629394531,0.014421284198761,0.0284591839663391
1.795080112,-0.0124425888061523,0.00626933574676514,0.00498038530349731,0.014796176015307
1.800080112,0.0177545547485352,0.00999748706817627,0.0216065049171448,0.0296987376285876
1.805080112,0.0206727981567383,0.00768363475799561,0.0146627426147461,0.0264839356537092
1.810080112,-0.00136375427246094,0.0044548511505127,0.0175362229347229,0.0181445484734446
1.815080112,-0.0152034759521484,0.0017925500869751,0.00330683588981628,0.0156618670803978
1.820080112,-0.0138607025146484,-0.000590085983276367,0.0151246786117554,0.0205237223421126
1.825080112,0.00613021850585938,-0.0169512033462524,0.0119586586952209,0.0216317449967487
1.830080112,0.0195627212524414,0.00463640689849854,0.0191740691661835,0.0277820312453707
1.835080112,-0.00709342956542969,-0.00139999389648438,0.00342628359794617,0.00800100901158475
1.840080112,-0.0230522155761719,0.00772428512573242,-0.00380784273147583,0.0246083093678043
1.845080112,-0.0226650238037109,0.0075221061706543,-0.00112316012382507,0.0239070465329603
1.850080112,0.00514125823974609,0.00194764137268066,0.0226604342460632,0.0233178284457299
1.855080112,0.0126066207885742,0.00987720489501953,0.0197798013687134,0.0254504735993432
1.860080112,0.00980186462402344,0.00567710399627686,-0.00485864281654358,0.0123252776808872
1.865080112,-0.0166740417480469,0.00570487976074219,-0.00237354636192322,0.0177820989658796
1.870080112,-0.0257730484008789,-0.00294017791748047,0.00420451164245606,0.0262787478433055
1.875080112,-0.00553989410400391,-0.00732696056365967,0.00688689947128296,0.0114805993794993
1.880080112,0.0185079574584961,0.00759983062744141,0.0158332288265228,0.0255145654465117
1.885080112,0.00851154327392578,-0.00320565700531006,0.0127313137054443,0.0156463719247
1.890080112,0.000646591186523438,0.00175070762634277,0.00254133343696594,0.00315300380482892
1.895080112,-0.0244626998901367,0.00292050838470459,0.00209814310073853,0.0247255992770894
1.900080112,-0.0214004516601563,-0.0014418363571167,0.00843515992164612,0.0230479965776449
1.905080112,0.00978183746337891,-0.00509226322174072,-0.0121690630912781,0.0164225937476077
1.910080112,0.00918483734130859,-0.00847327709197998,-0.00433120131492615,0.0132256178114365
1.915080112,-0.0104808807373047,-0.00840294361114502,0.0145576596260071,0.0198086793135828
1.920080112,-0.017878532409668,-0.00030219554901123,-0.012755960226059,0.0219646935913568
1.925080112,-0.00417041778564453,-0.00523185729980469,-0.00804662704467773,0.0104648421922396
1.930080112,0.00613880157470703,-0.00123071670532227,-0.00516283512115479,0.0081150733127073
1.935080112,0.0132417678833008,-0.0100100040435791,0.0200193822383881,0.0260061581713711
1.940080112,0.00916194915771484,0.0067903995513916,0.0195548236370087,0.0226371810504445
1.945080112,-0.00132369995117188,0.00103950500488281,0.00331529974937439,0.003718059257746
1.950080112,-0.0167665481567383,-0.00204908847808838,-0.0088859498500824,0.0190860159651363
1.955080112,0.0006256103515625,0.00408220291137695,0.0189746916294098,0.019418926112245
1.960080112,0.00863265991210938,0.000913381576538086,0.017458587884903,0.0194976761178706
1.965080112,0.00659656524658203,-0.00236988067626953,0.018479198217392,0.0197639007847599
1.970080112,-0.008636474609375,0.00432610511779785,0.00447970628738403,0.0106476122952446
1.975080112,-0.00596237182617188,0.0148332118988037,0.00248852372169495,0.0161792089838094
1.980080112,-0.0105228424072266,0.00640642642974854,0.00889009237289429,0.0151923090518097
1.985080112,-0.00517463684082031,0.00136125087738037,0.0163590013980865,0.0172118214355175
1.990080112,0.00640869140625,-0.000814080238342285,0.0110032260417938,0.0127595076512306
1.995080112,-0.00493049621582031,0.0101248025894165,-0.000303745269775391,0.0112655972588134
2.000080112,-0.00622081756591797,-0.0150642395019531,-0.00322028994560242,0.016613252249165
2.005080112,-0.00487709045410156,0.000163674354553223,-0.00381425023078918,0.00619365041109864
2.010080112,0.00868988037109375,-0.00988590717315674,-0.00763866305351257,0.0152182244281418
2.015080112,0.00676822662353516,-0.0116357803344727,0.00900429487228394,0.0161949869332047
2.020080112,0.00648689270019531,-0.00863170623779297,0.0112763047218323,0.0156122124524046
2.025080112,-0.00188255310058594,0.00186347961425781,-0.00906795263290405,0.00944692158334511
2.030080112,-0.00141429901123047,0.00141656398773193,-0.00090286135673523,0.00219591754262137
2.035080112,-0.00465679168701172,0.000612258911132813,0.00564229488372803,0.00734139369230574
2.040080112,0.00631427764892578,-0.000345945358276367,0.00438660383224487,0.00769623762624973
2.045080112,-0.0067901611328125,0.0065993070602417,-0.00320515036582947,0.00999650592719728
2.050080112,-0.0206327438354492,-0.00457131862640381,-0.00325188040733337,0.0213818099876267
2.055080112,-0.00300884246826172,-0.00134408473968506,0.00788450241088867,0.00854547102584631
2.060080112,-0.000307083129882813,0.000983476638793945,0.0145508944988251,0.0145873252196436
2.065080112,0.0169887542724609,-0.00291240215301514,-0.0114921033382416,0.0207163775107467
2.070080112,0.001434326171875,0.00198447704315186,0.00887244939804077,0.00920411859022451
2.075080112,-0.00557422637939453,-0.00647115707397461,0.0052834153175354,0.0100430249936141
2.080080112,0.000193595886230469,0.00198066234588623,0.00525277853012085,0.00561713316399705
2.085080112,0.00762367248535156,-0.00163614749908447,-0.00209420919418335,0.00807360346757685
2.090080112,0.00415134429931641,0.000675797462463379,0.0227337181568146,0.0231195221173626
2.095080112,-0.00824165344238281,0.00510573387145996,0.0210197567939758,0.0231478626552951
2.100080112,0.00729751586914063,0.00349569320678711,-0.000299274921417236,0.00809710901093261
2.105080112,-0.000478744506835938,0.00162184238433838,0.00568079948425293,0.00592714533335824
2.110080112,-0.0086212158203125,-0.00280654430389404,-0.00530767440795898,0.0105058774393684
2.115080112,-0.00279331207275391,-0.014259934425354,-0.0124212801456451,0.0191163940796319
2.120080112,0.00375080108642578,0.00941324234008789,0.0143689811229706,0.0175825270838819
2.125080112,-0.0103511810302734,-0.0161712169647217,0.000866055488586426,0.0192199182867905
2.130080112,-0.00881767272949219,-0.000781416893005371,-0.0216564238071442,0.0233957828858054
2.135080112,-0.00544548034667969,-0.00315558910369873,0.00179475545883179,0.00654462725863463
2.140080112,0.000719070434570313,0.00221598148345947,0.00499922037124634,0.00551541843790594
2.145080112,0.00407123565673828,-0.00101137161254883,0.00679561495780945,0.00798612640559679
2.150080112,0.0180721282958984,-0.00358402729034424,0.00221595168113709,0.0185568724362291
2.155080112,-0.0103521347045898,-0.00426828861236572,-0.00139552354812622,0.0112841688481606
2.160080112,-0.00717544555664063,-0.00667464733123779,-0.021229088306427,0.0233818760208583
2.165080112,-0.000730514526367188,-0.00345289707183838,-0.00911492109298706,0.00977435093463111
2.170080112,0.00559139251708984,0.00288355350494385,0.0031333863735199,0.00702827583848289
2.175080112,-0.00321006774902344,0.00601541996002197,-0.000692039728164673,0.0068533737118378
2.180080112,-0.0102033615112305,0.0011523962020874,-0.00602820515632629,0.011906966890951
2.185080112,-0.00154209136962891,0.0027775764465332,0.00778719782829285,0.00841031668402497
2.190080112,0.00279140472412109,0.00558531284332275,0.0175475776195526,0.0186253896658796
2.195080112,0.0108747482299805,0.00354921817779541,0.0014592707157135,0.0115319803052553
2.200080112,0.000640869140625,0.00711250305175781,0.00718241930007935,0.010128452987442
2.205080112,-0.0171356201171875,0.00556409358978272,-0.0034828782081604,0.0183499061275338
2.210080112,-0.0098114013671875,-0.00397801399230957,0.00829783082008362,0.0134514753253979
2.215080112,0.00409698486328125,-0.00490975379943848,-0.00799629092216492,0.0102387321408929
2.220080112,0.00928783416748047,-0.00698661804199219,0.0172470808029175,0.0207975597465105
2.225080112,0.010523796081543,0.00116336345672607,0.01694056391716,0.0199771470518122
2.230080112,-0.00623607635498047,0.0055311918258667,0.00584402680397034,0.010180146394095
2.235080112,-0.00199985504150391,-0.00703012943267822,0.00477206707000732,0.00872896122960147
2.240080112,0.0126848220825195,0.000518321990966797,-0.00834035873413086,0.0151899622371317
2.245080112,0.0000667572021484375,-0.00297915935516357,-0.00135692954063416,0.00327430981517372
2.250080112,0.00375461578369141,0.000727295875549316,0.00642123818397522,0.00747384765626629
2.255080112,0.00105571746826172,-0.00193309783935547,0.00138711929321289,0.00260298032319054
2.260080112,-0.00451564788818359,-0.00400471687316895,0.000938981771469116,0.00610823377511473
2.265080112,0.00703525543212891,0.000243902206420898,0.015363872051239,0.0168997891018924
2.270080112,-0.000779151916503906,0.00440526008605957,0.00411614775657654,0.00607915014527453
2.275080112,0.00704669952392578,-0.00547695159912109,0.0151821970939636,0.0176111351593124
2.280080112,0.00609970092773438,-0.00240921974182129,-0.00630402565002441,0.00909678133013819
2.285080112,-0.0107383728027344,-0.00530350208282471,-0.00607207417488098,0.0134279510565941
2.290080112,-0.0142221450805664,0.00427508354187012,-0.0021916925907135,0.0150116376986269
2.295080112,-0.00655937194824219,-0.00338089466094971,-0.000731915235519409,0.00741562600026526
2.300080112,0.0123434066772461,-0.00846982002258301,-0.00697064399719238,0.0165132497513489
2.305080112,0.00112152099609375,0.00084531307220459,0.0197271406650543,0.0197770685985957
2.310080112,-0.00590133666992188,0.0107583999633789,0.00100484490394592,0.012311728454802
2.315080112,-0.0172910690307617,-0.0033419132232666,0.00177845358848572,0.0177006313272948
2.320080112,-0.00273227691650391,0.00195395946502686,0.0131871700286865,0.0136082602894314
2.325080112,0.0216617584228516,-0.00822973251342773,0.0277670025825501,0.0361658223690806
2.330080112,0.0109491348266602,-0.00259363651275635,0.0147819519042969,0.0185773142815002
2.335080112,-0.00733470916748047,0.0100622177124023,0.0136158764362335,0.0184509694864548
2.340080112,-0.00638580322265625,0.00567841529846191,0.00436428189277649,0.00959530299364799
2.345080112,0.0106725692749023,0.00334644317626953,0.0186364352703094,0.0217352050011962
2.350080112,0.0139656066894531,0.00133883953094482,0.00898814201354981,0.0166618533887997
2.355080112,0.00371742248535156,0.0140718221664429,0.00975850224494934,0.0175232352915571
2.360080112,-0.0121669769287109,-0.0044703483581543,0.010008305311203,0.0163763706977246
2.365080112,-0.0159749984741211,-0.003021240234375,0.00582495331764221,0.0172701635763732
2.370080112,-0.00369834899902344,0.000247478485107422,0.00062069296836853,0.00375822972689947
2.375080112,0.0110397338867188,0.00629806518554688,0.0119715929031372,0.0174602516021221
2.380080112,0.0215578079223633,0.00188779830932617,0.00776630640029907,0.022991702415818
2.385080112,-0.0151195526123047,0.00483882427215576,0.00139480829238892,0.0159361407406426
2.390080112,-0.0115699768066406,0.00816082954406738,-0.00333559513092041,0.0145461230928019
2.395080112,-0.00470542907714844,-0.00616550445556641,-0.00156399607658386,0.00791205357156111
2.400080112,0.0177478790283203,-0.00250709056854248,-0.00051194429397583,0.0179313914709066
2.405080112,0.0144376754760742,0.0079566240310669,-0.0027962327003479,0.0167204442655894
2.410080112,0.0008392333984375,0.00872492790222168,0.00519755482673645,0.0101903511113676
2.415080112,-0.0203828811645508,0.00471925735473633,0.00207629799842834,0.0210248483449158
2.420080112,-0.00384807586669922,0.00466203689575195,-0.00258299708366394,0.00657374701577737
2.425080112,-0.00569725036621094,0.0078880786895752,0.00240233540534973,0.0100225576849434
2.430080112,0.0178747177124023,0.00669538974761963,0.0116494596004486,0.0223616566057411
2.435080112,-0.000490188598632813,-0.000264286994934082,0.00822421908378601,0.00824305234825249
2.440080112,-0.0149574279785156,0.0160311460494995,0.0106034874916077,0.0243547991652066
2.445080112,-0.0246238708496094,0.00421297550201416,0.00644886493682861,0.0258006208679611
2.450080112,-0.00496196746826172,0.00134181976318359,0.0118600428104401,0.0129260286591988
2.455080112,0.0144529342651367,0.00889384746551514,0.0154467225074768,0.0229475285779363
2.460080112,0.000690460205078125,0.00886940956115723,0.0151146948337555,0.0175384480834508
2.465080112,-0.00924873352050781,0.00210976600646973,0.024892657995224,0.0266389678178906
2.470080112,-0.0188894271850586,0.0117805004119873,-0.000474244356155396,0.0222669161997302
2.475080112,-0.00565433502197266,-0.010342001914978,-0.00871449708938599,0.0146584776723585
2.480080112,-0.000429153442382813,-0.0102952718734741,0.00475043058395386,0.0113465142823169
2.485080112,0.0181303024291992,-0.00284445285797119,0.0100758373737335,0.0209361237342869
2.490080112,0.00208950042724609,0.00355148315429688,0.00526827573776245,0.00668833117300666
2.495080112,-0.0173978805541992,0.00632548332214356,0.00498998165130615,0.0191728428752043
2.500080112,0.00150489807128906,0.0045921802520752,0.00457438826560974,0.0066541615307315
2.505080112,-0.00396347045898438,-0.00544619560241699,0.00467300415039063,0.0081979944137939
2.510080112,0.0113468170166016,-0.00538742542266846,0.0145390927791595,0.0192135324168687
2.515080112,-0.00457286834716797,-0.00338566303253174,0.0160181820392609,0.0169987056840597
2.520080112,-0.00437641143798828,-0.000541806221008301,-0.000719577074050903,0.00446814527753716
2.525080112,-0.0103187561035156,-0.00764143466949463,-0.00365504622459412,0.0133501915430422
2.530080112,-0.001495361328125,0.00315725803375244,0.0161678493022919,0.0165409713999803
2.535080112,0.021296501159668,-0.0000203847885131836,-0.00019758939743042,0.0212974275149211
2.540080112,0.00138759613037109,0.000632882118225098,0.0101849436759949,0.0102984970010083
2.545080112,-0.00767707824707031,-0.00576698780059814,-0.00311404466629028,0.0100942039253989
2.550080112,-0.010310173034668,-0.0145480632781982,-0.00553169846534729,0.0186693733441372
2.555080112,0.00441646575927734,-0.0129096508026123,0.00558069348335266,0.014741383700433
2.560080112,0.00426197052001953,-0.000592231750488281,0.00770381093025208,0.00882404861777593
2.565080112,0.00396156311035156,0.00109708309173584,0.00173503160476685,0.0044618279053557
2.570080112,0.00260353088378906,0.00956273078918457,-0.00283852219581604,0.010309287146326
2.575080112,-0.00296401977539063,0.00520396232604981,0.00510331988334656,0.00786832326176376
2.580080112,-0.00848579406738281,-0.0000337362289428711,0.00524508953094482,0.00997601139107207
2.585080112,0.00107765197753906,-0.00378167629241943,0.0105973780155182,0.011303399053786
2.590080112,-0.00509834289550781,0.0226775407791138,-0.00237137079238892,0.0233642323970538
2.595080112,-0.0142660140991211,0.0039595365524292,-0.00247398018836975,0.0150105851304601
2.600080112,-0.00858497619628906,-0.00161564350128174,0.0000110864639282227,0.00873568790214979
2.605080112,-0.00519943237304688,-0.00718212127685547,-0.00575798749923706,0.0105721985924744
2.610080112,-0.00820636749267578,0.00253582000732422,-0.00542977452278137,0.010161560013238
2.615080112,-0.00982189178466797,-0.00613856315612793,0.0038125216960907,0.0121937212340885
2.620080112,0.00893878936767578,-0.000283241271972656,0.00534579157829285,0.0104191971176463
2.625080112,-0.0123500823974609,0.00721168518066406,0.0160415768623352,0.0214910475919461
2.630080112,-0.00172138214111328,-0.00639414787292481,0.0145034193992615,0.0159435710481512
2.635080112,0.00447750091552734,-0.00715303421020508,-0.000351518392562866,0.00844615167050784
2.640080112,0.00460338592529297,-0.00462222099304199,0.0106024444103241,0.0124486110213034
2.645080112,0.0156316757202148,0.0112706422805786,0.00563228130340576,0.0200773318924456
2.650080112,-0.000346183776855469,0.00484514236450195,0.00860941410064697,0.0098852040391723
2.655080112,-0.00340175628662109,-0.00628924369812012,0.0100662708282471,0.0123473211878337
2.660080112,0.00282859802246094,-0.00914168357849121,0.0160652101039886,0.0186992599080077
2.665080112,0.00948238372802734,-0.00461435317993164,0.0102782547473907,0.0147258404543497
2.670080112,0.00885963439941406,-0.00910961627960205,0.00786781311035156,0.0149459263209843
2.675080112,0.000261306762695313,-0.0130177736282349,0.0239726006984711,0.0272803279985511
2.680080112,-0.000171661376953125,0.00021970272064209,0.00277778506278992,0.00279174260433403
2.685080112,0.00629138946533203,-0.014538049697876,0.00460287928581238,0.0164961501006193
2.690080112,-0.0052032470703125,-0.000872254371643066,0.00694087147712708,0.00871838887785824
2.695080112,-0.00515079498291016,0.00127995014190674,0.000384539365768433,0.00532135620359745
2.700080112,-0.00175094604492188,0.0056990385055542,-0.0074746310710907,0.00956111717263895
2.705080112,-0.000337600708007813,0.00151300430297852,-0.00747933983802795,0.00763830352052018
2.710080112,-0.000110626220703125,0.00479543209075928,-0.0058836042881012,0.00759112682786645
2.715080112,0.003387451171875,-0.00919020175933838,0.0112476348876953,0.014914554112882
2.720080112,-0.000348091125488281,0.000292778015136719,0.00377720594406128,0.00380449354601147
2.725080112,-0.00298404693603516,-0.00310242176055908,-0.0126842260360718,0.0133947432611085
2.730080112,0.00184249877929688,0.00800168514251709,-0.0175206065177917,0.0193492485544782
2.735080112,-0.0126256942749023,-0.0107583999633789,0.000927239656448364,0.0166135817654058
2.740080112,-0.000864028930664063,0.00494837760925293,0.00792038440704346,0.00937899120972599
2.745080112,-0.00630950927734375,-0.0049668550491333,0.0111031830310822,0.0137025628924555
2.750080112,-0.00316333770751953,0.00979864597320557,0.00160029530525208,0.0104202261695246
2.755080112,-0.00887012481689453,0.00712227821350098,0.00412964820861816,0.0121020641026538
2.760080112,-0.00479793548583984,0.00459110736846924,-0.00220343470573425,0.0069966832354715
2.765080112,0.00397109985351563,-0.00731587409973145,-0.0113990902900696,0.0141149179002526
2.770080112,0.000383377075195313,-0.00283253192901611,-0.00571012496948242,0.00638558863988181
2.775080112,0.00347900390625,0.00340402126312256,0.00356113910675049,0.00603096515303487
2.780080112,-0.00209617614746094,0.000452995300292969,0.0010603666305542,0.0023923913924073
2.785080112,-0.00194263458251953,0.000158309936523438,0.00620576739311218,0.00650464757651153
2.790080112,-0.00367355346679688,-0.00726854801177979,0.00958907604217529,0.0125808252756162
2.795080112,0.00864601135253906,0.0050586462020874,0.00721848011016846,0.0123470591157176
2.800080112,0.00415706634521484,0.00163805484771729,0.0153056383132935,0.0159444971215779
2.805080112,-0.00142955780029297,0.00452232360839844,0.00275766849517822,0.00548632680878152
2.810080112,-0.0048370361328125,-0.00750875473022461,-0.00745552778244019,0.011634569638089
2.815080112,0.00109195709228516,-0.0120033025741577,-0.00443285703659058,0.0128421907977192
2.820080112,0.00467491149902344,-0.00832605361938477,-0.00623366236686707,0.0114033553351926
2.825080112,0.0137529373168945,-0.0128397941589355,0.0157656669616699,0.0245470946067464
2.830080112,0.00575447082519531,0.00294601917266846,-0.0121306777000427,0.013745774074459
2.835080112,0.0125150680541992,-0.0162463188171387,0.0098249614238739,0.0227398256477477
2.840080112,0.00908660888671875,-0.00833773612976074,0.0000761151313781738,0.0123324814349318
2.845080112,-0.000139236450195313,-0.00022590160369873,-0.00135010480880737,0.00137593652411056
2.850080112,0.00246429443359375,-0.0139580965042114,0.00147762894630432,0.01425077515012
2.855080112,0.00888824462890625,-0.00805270671844482,-0.00127416849136353,0.0120611145181924
2.860080112,-0.00132656097412109,-0.000516295433044434,-0.00301992893218994,0.00333860685731662
2.865080112,-0.00381278991699219,-0.00799834728240967,0.00866836309432983,0.0123956220068332
2.870080112,-0.00291633605957031,0.00169527530670166,-0.000841319561004639,0.0034766065324669
2.875080112,0.00413608551025391,0.00166428089141846,-0.010126918554306,0.0110648774796299
2.880080112,-0.00298309326171875,-0.00237715244293213,0.00508081912994385,0.00635330010122719
2.885080112,-0.00528526306152344,0.00155115127563477,-0.00516360998153687,0.00755002940066028
2.890080112,0.00646781921386719,-0.0079345703125,-0.00811043381690979,0.0130602154701119
2.895080112,-0.00209617614746094,-0.00628304481506348,-0.00174793601036072,0.0068502472134658
2.900080112,0.00902175903320313,-0.00558972358703613,-0.00475907325744629,0.0116312477448634
2.905080112,0.0102987289428711,-0.00141823291778564,-0.00137662887573242,0.0104866729475712
2.910080112,-0.00751113891601563,-0.0024796724319458,-0.00789022445678711,0.0111723598744365
2.915080112,0.0035552978515625,-0.0076749324798584,-0.013681173324585,0.0160847516275834
2.920080112,-0.0112934112548828,-0.000216960906982422,-0.00240573287010193,0.0115488423856836
2.925080112,0.00407981872558594,-0.00267374515533447,0.00535333156585693,0.00724237480687906
2.930080112,0.00911998748779297,0.00383603572845459,0.000367075204849243,0.00990071139330379
2.935080112,-0.00329685211181641,0.00153374671936035,0.00944638252258301,0.0101220430551
2.940080112,-0.0102682113647461,-0.0026472806930542,0.0026523768901825,0.0109306615932656
2.945080112,-0.00954151153564453,-0.00302505493164063,0.0187370181083679,0.0212430517421012
2.950080112,0.00411128997802734,0.00250482559204102,-0.00638744235038757,0.00799851713191242
2.955080112,0.00224113464355469,0.00439298152923584,0.00493142008781433,0.00697422936884406
2.960080112,0.00194644927978516,-0.00119304656982422,0.00819489359855652,0.00850695633045146
2.965080112,0.000580787658691406,0.00359451770782471,-0.00417247414588928,0.00553781656923269
2.970080112,-0.00925064086914063,0.0103487968444824,-0.00356227159500122,0.014330447708803
2.975080112,-0.00446510314941406,0.00599384307861328,0.00697994232177734,0.0102265779125417
2.980080112,0.00772476196289063,0.00483167171478272,0.0115704536437988,0.0147272671078531
2.985080112,0.00403594970703125,0.00118625164031982,0.00583764910697937,0.00719543119542284
2.990080112,-0.00970649719238281,0.00938773155212402,0.0112046003341675,0.0175467563979474
2.995080112,-0.0125732421875,-0.00248074531555176,0.00716179609298706,0.0146810026804604
3.000080112,-0.00137901306152344,0.00455844402313232,0.00689205527305603,0.0083774408277673
3.005080112,0.0128040313720703,-0.00731992721557617,-0.00519338250160217,0.0156363606899509
3.010080112,0.00158214569091797,0.000803470611572266,0.0135140419006348,0.0136300432318853
3.015080112,-0.00140953063964844,-0.0112395286560059,0.0130155086517334,0.0172544848226956
3.020080112,0.00117874145507813,-0.00276398658752441,0.00195705890655518,0.0035859633067924
3.025080112,-0.000748634338378906,-0.00629627704620361,-0.00176918506622314,0.00658282415181338
3.030080112,-0.00520515441894531,0.00937533378601074,0.0073128342628479,0.0129795246862149
3.035080112,-0.00545597076416016,-0.0100970268249512,-0.00105434656143188,0.0115251557193279
3.040080112,-0.00674152374267578,-0.0174076557159424,0.00592181086540222,0.0195842401900977
3.045080112,-0.0101156234741211,-0.00363433361053467,0.00636336207389832,0.0124910606413699
3.050080112,-0.0100383758544922,-0.00363266468048096,-0.00145697593688965,0.0107744151283279
3.055080112,-0.00620746612548828,-0.00362169742584229,0.0135654509067535,0.0153515727613485
3.060080112,0.00395107269287109,0.00550234317779541,0.008339524269104,0.0107440411813041
3.065080112,-0.00168800354003906,0.025833010673523,0.0126294195652008,0.0288044447084719
3.070080112,-0.00993156433105469,-0.000592589378356934,0.00967758893966675,0.0138795842847824
3.075080112,-0.00761890411376953,0.00277328491210938,0.00521892309188843,0.00964240464498322
3.080080112,0.00406932830810547,0.0102152824401855,0.00469076633453369,0.0119546943506351
3.085080112,-0.00240230560302734,0.00625467300415039,0.010633260011673,0.0125681432628303
3.090080112,-0.000409126281738281,-0.00397336483001709,0.00767526030540466,0.00865243509900804
3.095080112,-0.00649452209472656,0.00540530681610107,-0.014784961938858,0.0170291297061406
3.100080112,-0.0129671096801758,0.00383412837982178,-0.00205445289611816,0.0136772530353515
3.105080112,0.00203418731689453,-0.00407636165618897,0.00755155086517334,0.00881932893487721
3.110080112,0.00780391693115234,0.000635027885437012,0.0105835795402527,0.013164973823311
3.115080112,-0.00335311889648438,0.0134217739105225,0.000203162431716919,0.0138357759526816
3.120080112,-0.000194549560546875,-0.00409281253814697,-0.0165087282657623,0.0170096170726064
3.125080112,-0.0104732513427734,0.00153923034667969,-0.00677001476287842,0.0125654814328237
3.130080112,-0.00779533386230469,0.00225067138671875,0.0102882385253906,0.0131026945194918
3.135080112,0.00231742858886719,-0.00398433208465576,0.00740772485733032,0.00872466417618614
3.140080112,0.00648021697998047,-0.00717484951019287,0.00669428706169128,0.011759470943281
3.145080112,-0.00270557403564453,-0.0126488208770752,0.0100390911102295,0.016373641951691
3.150080112,-0.00023651123046875,0.00535166263580322,0.0114479064941406,0.012639256055171
3.155080112,-0.00582790374755859,-0.0114307403564453,0.015894889831543,0.020427281021814
3.160080112,0.006072998046875,-0.00372421741485596,0.00509828329086304,0.00876034206777094
3.165080112,0.00506210327148438,-0.00369083881378174,0.00725099444389343,0.00958248929589092
3.170080112,-0.00391674041748047,-0.00698256492614746,0.00931656360626221,0.0122839499296977
3.175080112,-0.00120639801025391,-0.0167186260223389,0.0105791687965393,0.0198213688896514
3.180080112,-0.00432109832763672,-0.00331664085388184,-0.000575482845306397,0.00547751566095295
3.185080112,0.00682163238525391,0.00428617000579834,-0.0167523324489594,0.0185888828120091
3.190080112,0.00874042510986328,0.00996470451354981,-0.00738075375556946,0.0151712192372215
3.195080112,-0.00535488128662109,0.00378060340881348,-0.00705987215042114,0.0096337692783681
3.200080112,-0.00607681274414063,0.00593054294586182,-0.0125684142112732,0.0151678616998638
3.205080112,0.00804233551025391,0.0187103748321533,-0.0350966155529022,0.0405774532232789
3.210080112,-0.000321388244628906,0.0148000717163086,-0.00471937656402588,0.0155376294319545
3.215080112,-0.000246047973632813,0.00932168960571289,-0.0158756673336029,0.0184117150205463
3.220080112,0.00658512115478516,0.0164854526519775,-0.0269443690776825,0.0322665925495421
3.225080112,-0.00197029113769531,0.00821912288665772,-0.0269345641136169,0.0282295372293597
3.230080112,0.0000982284545898438,0.00638067722320557,-0.0157679617404938,0.0170103294531794
3.235080112,0.000138282775878906,0.00656437873840332,-0.0133974850177765,0.0149198791935073
3.240080112,-0.0049896240234375,0.0126603841781616,-0.00315669178962708,0.0139694802511979
3.245080112,-0.00559425354003906,0.0232400894165039,0.0101675093173981,0.0259764446080812
3.250080112,0.00506019592285156,0.0140933990478516,0.0258600413799286,0.0298826240425978
3.255080112,0.0135602951049805,0.0170568227767944,0.0364314913749695,0.0424507994079924
3.260080112,0.0191965103149414,0.0025407075881958,0.0268530249595642,0.0331065877552995
3.265080112,-0.00320529937744141,-0.00303101539611816,0.0484402477741241,0.0486407093168785
3.270080112,0.00061798095703125,-0.00831449031829834,0.0450195372104645,0.0457850562996348
3.275080112,0.00881195068359375,-0.0112460851669312,0.0497267544269562,0.0517385254164705
3.280080112,0.0211324691772461,-0.012140154838562,0.0481350123882294,0.0539531651587422
3.285080112,0.0176830291748047,-0.0174695253372192,0.0392803847789764,0.0464846476235884
3.290080112,0.0213918685913086,-0.00997281074523926,0.0182110369205475,0.029811253943934
3.295080112,0.0140933990478516,-0.0217218399047852,-0.000735938549041748,0.0259037416432273
3.300080112,0.0135641098022461,-0.0146242380142212,-0.000229954719543457,0.0199475886110833
3.305080112,0.0148429870605469,-0.0227736234664917,-0.0205360054969788,0.0340687497928093
3.310080112,0.0135612487792969,-0.0059971809387207,-0.0210978984832764,0.0257874963514563
3.315080112,0.00231075286865234,-0.0106172561645508,-0.0450754761695862,0.0463666287236694
3.320080112,-0.00884723663330078,-0.00585579872131348,-0.0507696270942688,0.0518663572077437
3.325080112,-0.0012969970703125,-0.00305771827697754,-0.0402236580848694,0.0403605563909895
3.330080112,-0.00136470794677734,-0.0102931261062622,-0.0373950600624085,0.0388098104851151
3.335080112,-0.0265512466430664,0.00352728366851807,-0.0266194939613342,0.0377625196078949
3.340080112,-0.0245437622070313,0.00453722476959229,-0.0131358504295349,0.028205198783065
3.345080112,-0.0229005813598633,-0.00404763221740723,-0.0152922570705414,0.0278329495292654
3.350080112,-0.0155553817749023,0.0125707387924194,-0.0131803750991821,0.0239523623825572
3.355080112,-0.00515937805175781,0.0165464878082275,-0.0112534165382385,0.0206650628949414
3.360080112,-0.0279941558837891,0.0125426054000855,-0.00473448634147644,0.0310387672884372
3.365080112,-0.0238170623779297,0.011557936668396,0.00302225351333618,0.0266453068408626
3.370080112,-0.0138759613037109,0.00702714920043945,0.0171799957752228,0.023174886899918
3.375080112,-0.00769710540771484,0.00520861148834229,0.0206618905067444,0.0226558774848086
3.380080112,-0.0172004699707031,0.0143026113510132,0.00312834978103638,0.022587771714441
3.385080112,0.000554084777832031,0.00701892375946045,0.0047171413898468,0.00847488782072951
3.390080112,0.00423145294189453,0.014374852180481,-0.00269457697868347,0.0152250554778693
3.395080112,0.0229921340942383,0.00827920436859131,0.00795966386795044,0.0257009669871601
3.400080112,0.0288734436035156,0.0137271881103516,0.00204366445541382,0.0320357301048173
3.405080112,0.0219879150390625,0.012508749961853,0.00351879000663757,0.025540538688211
3.410080112,0.00242710113525391,0.00267422199249268,-0.00259599089622498,0.0044476344183358
3.415080112,0.00454998016357422,-0.0128321647644043,0.00634020566940308,0.015018820857846
3.420080112,0.00605297088623047,-0.0138289928436279,0.0288052558898926,0.0325211049397289
3.425080112,0.0265579223632813,-0.0175323486328125,0.0303618311882019,0.0439834887422249
3.430080112,0.0181407928466797,-0.0227286815643311,0.0356957912445068,0.0460420551597159
3.435080112,0.010310173034668,-0.0130494832992554,0.0342437624931335,0.0380686741569559
3.440080112,0.00465583801269531,-0.016218900680542,0.0414612293243408,0.0447634125594924
3.445080112,0.00822162628173828,-0.0298629999160767,0.0274188220500946,0.0413664804560277
3.450080112,-0.00075531005859375,-0.00972211360931397,0.0144561231136322,0.0174375881874046
3.455080112,0.00498580932617188,-0.0131291151046753,0.0149621963500977,0.0205207036352955
3.460080112,0.00792217254638672,-0.0156289339065552,0.0100205540657043,0.0201850414092688
3.465080112,0.00379085540771484,-0.0216114521026611,0.0136818587779999,0.0258576624297122
3.470080112,-0.0223455429077148,-0.0171511173248291,0.0035952627658844,0.0283973595196161
3.475080112,0.0125608444213867,0.00788581371307373,-0.00378608703613281,0.0153067085142677
3.480080112,0.000112533569335938,0.0116305351257324,-0.0212386846542358,0.0242149486259458
3.485080112,-0.0165615081787109,0.00148260593414307,-0.018104612827301,0.0245816736439149
3.490080112,-0.0132789611816406,0.00413405895233154,-0.0256173610687256,0.0291491070465345
3.495080112,-0.00550556182861328,0.00956058502197266,-0.0194616913795471,0.0223712634503237
3.500080112,-0.0099029541015625,0.011799693107605,-0.0178770422935486,0.0235985147527686
3.505080112,-0.0233325958251953,0.00859427452087402,-0.0260083079338074,0.0359819908296055
3.510080112,-0.0146455764770508,0.0200513601303101,-0.0185215771198273,0.0309773913108615
3.515080112,-0.0123863220214844,0.0144246816635132,-0.0324501097202301,0.0376098661945051
3.520080112,-0.0155029296875,0.0147051811218262,-0.0278195440769196,0.0350786290121058
3.525080112,-0.0152530670166016,0.0164306163787842,-0.0281055867671967,0.0359519848621481
3.530080112,-0.00955677032470703,0.0208737850189209,-0.0175784826278687,0.0289145259610737
3.535080112,-0.00803947448730469,0.0126892328262329,-0.00949549674987793,0.0177711631098618
3.540080112,-0.00109195709228516,0.0138044357299805,-0.0194314122200012,0.0238607333705015
3.545080112,0.0000524520874023438,0.00373208522796631,-0.00633668899536133,0.00735423951161577
3.550080112,0.00511646270751953,0.00219821929931641,0.0099245011806488,0.0113800739193568
3.555080112,0.0166120529174805,-0.0106197595596313,0.0221417844295502,0.0296479040230878
3.560080112,0.00528144836425781,-0.0123230218887329,0.0324859321117401,0.0351437953337869
3.565080112,-0.00382041931152344,-0.00886404514312744,0.0292701423168182,0.0308205796710908
3.570080112,0.0123929977416992,-0.0229275226593018,0.0421957969665527,0.0495957958899855
3.575080112,0.0334930419921875,-0.028711199760437,0.0493192076683044,0.0661702433016797
3.580080112,0.0189838409423828,-0.0274899005889893,0.0534527599811554,0.0630339464171585
3.585080112,0.00218009948730469,-0.0186306238174438,0.0449272692203522,0.0486858552066168
3.590080112,0.00922584533691406,-0.0255695581436157,0.0286945700645447,0.0395259013436692
3.595080112,-0.00742530822753906,-0.0127224922180176,0.0159832835197449,0.0217361993592262
3.600080112,0.0125017166137695,0.00300705432891846,0.0191671848297119,0.0230806470516839
3.605080112,0.0158987045288086,0.00047600269317627,0.0197559893131256,0.0253632509351345
3.610080112,-0.00556564331054688,0.0110131502151489,0.00678911805152893,0.0140839620504766
3.615080112,-0.0383710861206055,0.0209524631500244,-0.00315803289413452,0.0438328545030835
3.620080112,-0.0332412719726563,0.00728428363800049,-0.0166311264038086,0.0378766064469668
3.625080112,-0.0145263671875,0.0136399269104004,-0.0184046924114227,0.027125553497509
3.630080112,0.00474262237548828,0.0177586078643799,-0.0181706547737122,0.0258463404601643
3.635080112,-0.00542163848876953,0.00400912761688232,-0.0272239744663239,0.0280466050333086
3.640080112,-0.00428199768066406,0.0074007511138916,-0.0250895023345947,0.0265064095755086
3.645080112,-0.0082855224609375,0.00760209560394287,-0.0256382524967194,0.0279957448750292
3.650080112,-0.00941562652587891,-0.00669097900390625,-0.0435053706169128,0.0450126703875752
3.655080112,-0.0113353729248047,0.00268125534057617,-0.0316735208034515,0.0337474699737986
3.660080112,-0.00960445404052734,0.0028834342956543,-0.0218831896781921,0.0240714295638147
3.665080112,0.00515174865722656,0.0057218074798584,-0.0265590846538544,0.0276525690074973
3.670080112,0.00171089172363281,0.0148583650588989,-0.0396791398525238,0.0424043901282597
3.675080112,-0.00381946563720703,0.0133059024810791,-0.0210516154766083,0.0251953541901035
3.680080112,-0.000116348266601563,0.0255424976348877,-0.0187914073467255,0.0317104038513853
3.685080112,-0.00785446166992188,0.00544834136962891,-0.0114878714084625,0.0149448379483236
3.690080112,0.00164222717285156,0.0185110569000244,0.0132641494274139,0.0228318592689242
3.695080112,0.00198459625244141,0.0214509963989258,0.0258270800113678,0.033632156200659
3.700080112,-0.00405502319335938,0.0101722478866577,0.0311262011528015,0.0329963367416893
3.705080112,0.000359535217285156,0.00766050815582275,0.037218302488327,0.0380001933006992
3.710080112,-0.00314521789550781,0.0162496566772461,0.049678385257721,0.0523630184343219
3.715080112,0.000762939453125,0.006203293800354,0.0340496599674225,0.0346185250188355
3.720080112,-0.00933074951171875,0.000518798828125,0.0252316892147064,0.0269066939496854
3.725080112,-0.00661373138427734,-0.00235664844512939,0.0272314846515656,0.0281220374625623
3.730080112,0.00606060028076172,-0.0242311954498291,0.0430184304714203,0.0497440154080409
3.735080112,0.0193462371826172,-0.0352381467819214,0.0411191880702972,0.0575047085838263
3.740080112,0.0245475769042969,-0.0280466079711914,0.0338761508464813,0.0503665498792167
3.745080112,0.0191116333007813,-0.0104919672012329,0.0207796394824982,0.0301185876195726
3.750080112,0.00943660736083984,-0.0249490737915039,0.0165923833847046,0.0314135803104578
3.755080112,0.0175180435180664,-0.0329464673995972,0.00294050574302673,0.0374299096557601
3.760080112,0.019160270690918,-0.0233150720596313,0.0019996166229248,0.0302441238050258
3.765080112,0.00534439086914063,-0.020103931427002,0.0038914680480957,0.0211630360807021
3.770080112,0.00110626220703125,-0.0116511583328247,0.00134295225143433,0.0117803576905325
3.775080112,0.00512027740478516,-0.0183892250061035,0.0149199664592743,0.0242277988305361
3.780080112,-0.000530242919921875,-0.0215511322021484,0.023655116558075,0.0320046402280157
3.785080112,-0.00458621978759766,-0.013845682144165,0.00984406471252441,0.0175966455906167
3.790080112,0.00176715850830078,0.00257492065429688,0.00754660367965698,0.00816726959682346
3.795080112,-0.00945186614990234,0.00906777381896973,-0.0234042406082153,0.0268201561180187
3.800080112,-0.0253362655639648,0.0125166177749634,-0.0308200716972351,0.0418146970893607
3.805080112,-0.0271768569946289,0.00436544418334961,-0.01505047082901,0.0313712500739026
3.810080112,-0.011693000793457,0.00900161266326904,-0.0151944160461426,0.0211807832026719
3.815080112,-0.00602912902832031,0.0107372999191284,-0.0317599475383759,0.0340636796901603
3.820080112,-0.00433826446533203,0.0209159851074219,-0.0286934077739716,0.0357716454928826
3.825080112,-0.0184917449951172,0.00909590721130371,-0.050892174243927,0.0549062251501168
3.830080112,-0.015899658203125,0.00361287593841553,-0.0502062737941742,0.0527875168180713
3.835080112,-0.00227832794189453,-0.00178003311157227,-0.0513147413730621,0.051396128047484
3.840080112,-0.00874996185302734,-0.00233674049377441,-0.044090062379837,0.045010618627415
3.845080112,-0.0147171020507813,0.00981056690216065,-0.0184183120727539,0.0255357501421876
3.850080112,-0.00900173187255859,0.0103714466094971,-0.0264660716056824,0.0298169587268083
3.855080112,-0.00343704223632813,0.00971674919128418,-0.00987279415130615,0.0142723697588974
3.860080112,-0.00157546997070313,0.0142866373062134,0.00514578819274902,0.0152666056237957
3.865080112,0.0129938125610352,0.0124585628509521,0.0415457785129547,0.0452781035979857
3.870080112,0.0225324630737305,0.011846661567688,0.0637054443359375,0.0686034905854476
3.875080112,0.0301265716552734,0.000680327415466309,0.0702135264873505,0.0764068875618058
3.880080112,0.0134954452514648,-0.00079643726348877,0.0745214819908142,0.0757377886722157
3.885080112,-0.00408554077148438,-0.00530374050140381,0.0783097445964813,0.0785954032082528
3.890080112,-0.00357532501220703,-0.0164167881011963,0.0661314427852631,0.0682324087612552
3.895080112,0.0169706344604492,-0.0184406042098999,0.0578145086765289,0.0630125045615932
3.900080112,0.0118913650512695,-0.0122344493865967,0.0493448078632355,0.0522110752392189
3.905080112,0.00195789337158203,-0.0212917327880859,0.0460223853588104,0.0507467357146111
3.910080112,-0.00364780426025391,-0.00275993347167969,0.042979508638382,0.0432222381591464
3.915080112,0.000870704650878906,-0.010145902633667,-0.000185191631317139,0.0101848791245269
3.920080112,0.00637340545654297,-0.0124547481536865,-0.00399598479270935,0.0145502214123639
3.925080112,0.00610065460205078,-0.00324082374572754,-0.025440901517868,0.0263621014937401
3.930080112,-0.00509357452392578,-0.00311541557312012,-0.0356023907661438,0.036099592018321
3.935080112,-0.00914382934570313,-0.00864744186401367,-0.04477259516716,0.0465077750908086
3.940080112,-0.0047607421875,-0.0010223388671875,-0.051168292760849,0.0513994555126332
3.945080112,-0.0134372711181641,0.00463306903839111,-0.0313467979431152,0.0344187060347137
3.950080112,-0.0114040374755859,0.00475573539733887,-0.0366913974285126,0.038715988107901
3.955080112,-0.0123672485351563,0.00285911560058594,-0.0344294309616089,0.0366948101873825
3.960080112,-0.00689029693603516,0.00589120388031006,-0.0224187076091766,0.0241822440210141
3.965080112,-0.0232667922973633,0.013468861579895,-0.0107772052288055,0.0289638051473008
3.970080112,-0.000926017761230469,0.0146150588989258,-0.0203440487384796,0.0250666666030172
3.975080112,-0.0127830505371094,0.0113060474395752,0.00683891773223877,0.0183848819819042
3.980080112,-0.0110244750976563,0.017458438873291,0.00226369500160217,0.0207716261792754
3.985080112,-0.0156879425048828,0.0000591278076171875,0.00800302624702454,0.0176114583508779
3.990080112,-0.00999164581298828,0.00580620765686035,0.00926116108894348,0.0148092585270888
3.995080112,0.00312519073486328,-0.00186634063720703,0.0156875550746918,0.0161043295024926
4.000080112,0.0197782516479492,0.00400757789611816,-0.000693202018737793,0.0201920887448982
4.005080112,0.0167112350463867,0.00895047187805176,0.0174054801464081,0.0257357157029367
4.010080112,0.024897575378418,0.00734865665435791,0.0186657905578613,0.0319734851321777
4.015080112,0.0225095748901367,0.00389385223388672,-0.00262123346328735,0.0229937798507134
4.020080112,0.0137844085693359,0.00689566135406494,0.00092962384223938,0.0154409930252036
4.025080112,0.00260162353515625,-0.00283479690551758,0.0185743272304535,0.0189686623296999
4.030080112,0.010045051574707,-0.0240023136138916,0.00222846865653992,0.0261147504776766
4.035080112,0.0102195739746094,-0.0206676721572876,0.00443941354751587,0.0234797946598666
4.040080112,0.0131778717041016,-0.0208001136779785,0.0222564935684204,0.0331911514959594
4.045080112,0.0126399993896484,-0.011059045791626,0.0326841175556183,0.036746749771661
4.050080112,-0.0290546417236328,-0.00852656364440918,0.033994734287262,0.0455248992588931
4.055080112,-0.0937967300415039,0.0125205516815186,0.0390302240848541,0.102361854091269
4.060080112,-0.254390716552734,0.0489020347595215,0.0362389981746674,0.261570852085126
4.065080112,-0.403053283691406,0.0637054443359375,0.0332010090351105,0.409405227291267
4.070080112,-0.434629440307617,0.0708622932434082,0.017385870218277,0.440711338031
4.075080112,-0.385823249816895,0.0656511783599854,0.0101231932640076,0.391499854867387
4.080080112,-0.286985397338867,0.0598288774490356,-0.00664791464805603,0.29323080948585
4.085080112,-0.211944580078125,0.0444204807281494,-0.00730562210083008,0.216672693819255
4.090080112,-0.175389289855957,0.0282679796218872,-0.0172800421714783,0.178491124500711
4.095080112,-0.238229751586914,0.0529111623764038,-0.0622985363006592,0.251861297682652
4.100080112,-0.33392333984375,0.0780477523803711,-0.0579768121242523,0.347789533034166
4.105080112,-0.394506454467773,0.0812186002731323,-0.0614904463291168,0.407446780128171
4.110080112,-0.413092613220215,0.0846880674362183,-0.0658279061317444,0.426791388255289
4.115080112,-0.395244598388672,0.0822367668151856,-0.0518257021903992,0.407022212881761
4.120080112,-0.427162170410156,0.0919264554977417,-0.0254549086093903,0.43768247100176
4.125080112,-0.525274276733398,0.0964375734329224,-0.0256309509277344,0.534668324302913
4.130080112,-0.569730758666992,0.0940512418746948,-0.00656667351722717,0.577478912749653
4.135080112,-0.572614669799805,0.0985257625579834,0.0178775787353516,0.5813041319129
4.140080112,-0.56993579864502,0.0996456146240234,0.0395445227622986,0.579930885857473
4.145080112,-0.535552978515625,0.0888428688049316,0.0332562625408173,0.543889719642348
4.150080112,-0.547770500183106,0.0870521068572998,0.0210276246070862,0.555043017410147
4.155080112,-0.579769134521484,0.0965793132781982,0.00262716412544251,0.587764166216708
4.160080112,-0.641968727111816,0.109580159187317,-0.00161024928092957,0.651255902683293
4.165080112,-0.731070518493652,0.12060558795929,-0.0130338072776794,0.741066590118415
4.170080112,-0.732841491699219,0.117409825325012,-0.0208881497383118,0.74248099897457
4.175080112,-0.657705307006836,0.115323185920715,-0.0441066026687622,0.669194366738723
4.180080112,-0.529316902160645,0.0933477878570557,-0.0511058866977692,0.53990925539938
4.185080112,-0.402706146240234,0.0837303400039673,-0.0464128851890564,0.413928938307548
4.190080112,-0.217386245727539,0.0515552759170532,-0.0302794575691223,0.225458581245154
4.195080112,0.0251970291137695,0.0160015821456909,-0.0248041152954102,0.0388095998808728
4.200080112,0.228431701660156,-0.00827991962432861,0.00264954566955566,0.22859706797025
4.205080112,0.334692001342773,-0.0340365171432495,0.0283105969429016,0.337607331320481
4.210080112,0.416522979736328,-0.0521171092987061,0.0400542914867401,0.421677521331868
4.215080112,0.508502960205078,-0.0692340135574341,0.0537993907928467,0.516006767029542
4.220080112,0.572090148925781,-0.0709742307662964,0.0570326149463654,0.579290254620609
4.225080112,0.618246078491211,-0.069941520690918,0.0525653660297394,0.624406236029205
4.230080112,0.667928695678711,-0.0893497467041016,0.0507483184337616,0.675786587297355
4.235080112,0.79619026184082,-0.107455372810364,0.0670132637023926,0.806198714776955
4.240080112,0.917455673217773,-0.131308078765869,0.0627871453762054,0.928928925964282
4.245080112,1.00754547119141,-0.142018675804138,0.0480109751224518,1.01863744017569
4.250080112,0.976675033569336,-0.143491625785828,0.0176602602005005,0.987317503470223
4.255080112,0.917147636413574,-0.134850978851318,0.00156307220458984,0.927009717678775
4.260080112,0.887526512145996,-0.136739253997803,-0.0196423530578613,0.898213090184931
4.265080112,0.849588394165039,-0.13715660572052,-0.0175155401229858,0.860766616533485
4.270080112,0.752730369567871,-0.118879914283752,-0.0401526391506195,0.763117079956055
4.275080112,0.618719100952148,-0.0971601009368897,-0.0377433598041534,0.627437624235595
4.280080112,0.530450820922852,-0.0811929702758789,-0.0292941033840179,0.537427684747465
4.285080112,0.461651802062988,-0.0752866268157959,-0.0210749506950378,0.46822496310225
4.290080112,0.39633846282959,-0.0697021484375,-0.0234919488430023,0.403105988885513
4.295080112,0.31253719329834,-0.0435143709182739,-0.0152628719806671,0.315920801677122
4.300080112,0.219882965087891,-0.0433238744735718,-0.0144923627376556,0.224578505233613
4.305080112,0.128111839294434,-0.0492957830429077,-0.00304237008094788,0.13730248944912
4.310080112,0.0656814575195313,-0.032853364944458,0.0119421184062958,0.0744043791862664
4.315080112,0.0358304977416992,-0.0260303020477295,0.0233791470527649,0.0500797934303722
4.320080112,0.00889205932617188,-0.0363287925720215,0.0363343060016632,0.0521443350846822
4.325080112,-0.0632381439208984,-0.0155313014984131,0.0219765603542328,0.0687259294429556
4.330080112,-0.18877124786377,0.00831210613250732,0.0117445886135101,0.189318806488165
4.335080112,-0.331569671630859,0.0219416618347168,-0.0105836093425751,0.33246337611259
4.340080112,-0.406617164611816,0.0368486642837524,-0.013727992773056,0.408514137334348
4.345080112,-0.347953796386719,0.0267181396484375,-0.0117722153663635,0.3491765863583
4.350080112,-0.187531471252441,0.0138394832611084,0.0226498544216156,0.189400633347305
4.355080112,-0.00228118896484375,-0.0182360410690308,0.0183039605617523,0.0259382341189774
4.360080112,0.0775480270385742,-0.030582070350647,0.0328178405761719,0.0895877792145245
4.365080112,0.141088485717773,-0.038091778755188,0.0229510366916657,0.147931384418894
4.370080112,0.192402839660645,-0.0484617948532105,0.0338853597640991,0.201284912192188
4.375080112,0.295895576477051,-0.0598785877227783,0.0512183606624603,0.306207377303863
4.380080112,0.453915596008301,-0.092087984085083,0.064667135477066,0.467655218642147
4.385080112,0.633201599121094,-0.136266589164734,0.0775829255580902,0.652328106699576
4.390080112,0.645518302917481,-0.134365797042847,0.090992271900177,0.665603215408384
4.395080112,0.546603202819824,-0.12322735786438,0.0846648812294006,0.566681731814883
4.400080112,0.367798805236816,-0.118959546089172,0.06900954246521,0.392669901686683
4.405080112,0.22968864440918,-0.0861642360687256,0.0502474904060364,0.250411579684204
4.410080112,0.124929428100586,-0.0559333562850952,0.0378819406032562,0.142024447806438
4.415080112,-0.0106143951416016,-0.0502698421478272,0.0127121210098267,0.0529275016825657
4.420080112,-0.141218185424805,-0.0323835611343384,0.0128116011619568,0.145448987795546
4.425080112,-0.321097373962402,-0.00190818309783936,0.00335043668746948,0.321120522785889
4.430080112,-0.487616539001465,0.0218852758407593,-0.000609040260314941,0.488107800937899
4.435080112,-0.57958984375,0.045998215675354,-0.00234076380729675,0.581416977735143
4.440080112,-0.614035606384277,0.032471776008606,-0.00319600105285645,0.614901908085827
4.445080112,-0.557112693786621,0.0335236787796021,0.00436317920684814,0.558137463309797
4.450080112,-0.471592903137207,0.0308854579925537,0.0084322988986969,0.472678412315927
4.455080112,-0.378396987915039,0.0142743587493896,0.0206697285175324,0.379229845157088
4.460080112,-0.287187576293945,-0.0059199333190918,0.0249684154987335,0.288331703703583
4.465080112,-0.16547679901123,-0.0288751125335693,0.0382446646690369,0.172275934217396
4.470080112,-0.0318813323974609,-0.0513129234313965,0.0489069819450378,0.0777259824607319
4.475080112,0.0794496536254883,-0.0756689310073853,0.0643848180770874,0.127214147718837
4.480080112,0.139081001281738,-0.0846104621887207,0.0640546083450317,0.174944128451215
4.485080112,0.161962509155273,-0.10216212272644,0.0802194178104401,0.207615290105739
4.490080112,0.163747787475586,-0.105033040046692,0.0891886651515961,0.214009101199279
4.495080112,0.146634101867676,-0.0963572263717651,0.0919398665428162,0.19808890419332
4.500080112,0.140814781188965,-0.0924128293991089,0.0941416919231415,0.192954895758041
4.505080112,0.145164489746094,-0.0760996341705322,0.103476732969284,0.193833221275738
4.510080112,0.109352111816406,-0.0741541385650635,0.113313794136047,0.174059577635191
4.515080112,0.0536375045776367,-0.0624703168869019,0.117840170860291,0.143756141634535
4.520080112,0.00352096557617188,-0.0485330820083618,0.104108542203903,0.114919301284166
4.525080112,0.00699520111083984,-0.0464662313461304,0.11549910902977,0.124691971196079
4.530080112,0.0422086715698242,-0.0428558588027954,0.118052870035172,0.132494062934743
4.535080112,0.115020751953125,-0.0721689462661743,0.12589219212532,0.185167422143181
4.540080112,0.168132781982422,-0.0755878686904907,0.150969207286835,0.238272658563954
4.545080112,0.227733612060547,-0.09332275390625,0.150278687477112,0.288366812183083
4.550080112,0.270817756652832,-0.101937651634216,0.14605900645256,0.324140055385138
4.555080112,0.334629058837891,-0.11399507522583,0.168925940990448,0.391800277863586
4.560080112,0.418124198913574,-0.133164882659912,0.169996827840805,0.470594999088263
4.565080112,0.4798583984375,-0.127545952796936,0.17758321762085,0.527321393275917
4.570080112,0.496715545654297,-0.133283972740173,0.181189566850662,0.545271134225515
4.575080112,0.476617813110352,-0.133856773376465,0.180519074201584,0.526943366694609
4.580080112,0.434774398803711,-0.123177886009216,0.191468626260757,0.490776735694561
4.585080112,0.382649421691895,-0.116909027099609,0.193663135170937,0.444515140870089
4.590080112,0.325142860412598,-0.0954309701919556,0.180165231227875,0.383776576008043
4.595080112,0.279372215270996,-0.103482246398926,0.185595065355301,0.351002761056705
4.600080112,0.233266830444336,-0.0863118171691895,0.190050393342972,0.313021238861539
4.605080112,0.191961288452148,-0.0834550857543945,0.163376271724701,0.265529082710624
4.610080112,0.168740272521973,-0.0807434320449829,0.156875222921371,0.244136471990201
4.615080112,0.124632835388184,-0.0821851491928101,0.166602045297623,0.223705127125182
4.620080112,0.0644502639770508,-0.0637054443359375,0.146262854337692,0.172061159834984
4.625080112,0.00243854522705078,-0.0421558618545532,0.133304923772812,0.139832992865059
4.630080112,-0.0726032257080078,-0.0370792150497437,0.129973471164703,0.1534248994737
4.635080112,-0.118740081787109,-0.0394881963729858,0.123670697212219,0.175934550400305
4.640080112,-0.161664009094238,-0.0324180126190186,0.116890549659729,0.202112790239367
4.645080112,-0.191292762756348,-0.0348783731460571,0.101011395454407,0.219118059520247
4.650080112,-0.22059440612793,-0.0337060689926147,0.095382571220398,0.242684622492821
4.655080112,-0.234184265136719,-0.0310896635055542,0.0862247049808502,0.251482677263362
4.660080112,-0.24720287322998,-0.0188107490539551,0.0756700932979584,0.259208541203507
4.665080112,-0.230984687805176,-0.0198484659194946,0.0820400714874268,0.245923689240126
4.670080112,-0.2069091796875,-0.0237945318222046,0.0688232779502869,0.219349565696891
4.675080112,-0.172903060913086,-0.0163142681121826,0.0618826448917389,0.184366714880825
4.680080112,-0.176623344421387,-0.0205870866775513,0.0737501680850983,0.19250641865934
4.685080112,-0.147568702697754,-0.0251618623733521,0.0845773220062256,0.171938840090709
4.690080112,-0.10633659362793,-0.028261661529541,0.0707537829875946,0.130813953628263
4.695080112,-0.0564699172973633,-0.0238165855407715,0.0638352930545807,0.0884930841690814
4.700080112,-0.0214500427246094,-0.0427031517028809,0.0855288505554199,0.0979737096142541
4.705080112,-0.00223255157470703,-0.0377522706985474,0.0964056849479675,0.10355807220935
4.710080112,-0.0147256851196289,-0.0343630313873291,0.0802273154258728,0.0885103715324454
4.715080112,-0.0404272079467773,-0.0314910411834717,0.0971514880657196,0.109838319591
4.720080112,-0.0487899780273438,-0.030640721321106,0.101403266191483,0.116627347364531
4.725080112,-0.0706443786621094,-0.0327746868133545,0.101153343915939,0.127658949226622
4.730080112,-0.0922660827636719,-0.0189964771270752,0.104357808828354,0.140586089053105
4.735080112,-0.144669532775879,0.00711178779602051,0.10497784614563,0.178885995596699
4.740080112,-0.194038391113281,0.00552177429199219,0.120065778493881,0.228248063261234
4.745080112,-0.273972511291504,0.0282269716262817,0.102305829524994,0.293809771153652
4.750080112,-0.309793472290039,0.0466675758361816,0.113445311784744,0.333196183762484
4.755080112,-0.309508323669434,0.0526391267776489,0.110372126102448,0.33278865111201
4.760080112,-0.29100513458252,0.046106219291687,0.106231212615967,0.313200961595941
4.765080112,-0.275411605834961,0.0460087060928345,0.108399033546448,0.299530806660571
4.770080112,-0.268681526184082,0.0443987846374512,0.104306489229202,0.291617657704763
4.775080112,-0.23974609375,0.0490145683288574,0.0972191095352173,0.26331003139962
4.780080112,-0.193414688110352,0.0263808965682983,0.0826287269592285,0.211973346908225
4.785080112,-0.128667831420898,0.0103219747543335,0.0768541991710663,0.150228232817975
4.790080112,-0.0634832382202148,-0.00203728675842285,0.0759675204753876,0.0990218977774059
4.795080112,0.0038604736328125,-0.00787496566772461,0.0637110769748688,0.0643118936918758
4.800080112,0.0450124740600586,-0.0211586952209473,0.052997350692749,0.0726810318096174
4.805080112,0.0934896469116211,-0.0393004417419434,0.0285258591175079,0.105349719691907
4.810080112,0.132718086242676,-0.03614342212677,0.0121538639068604,0.138087485989204
4.815080112,0.178736686706543,-0.041664719581604,0.00243085622787476,0.183544711431976
4.820080112,0.216900825500488,-0.0488609075546265,-0.0169997811317444,0.222985086829551
4.825080112,0.248102188110352,-0.0474033355712891,-0.0374214649200439,0.255347093199023
4.830080112,0.246238708496094,-0.0455456972122192,-0.0358688831329346,0.252971320258988
4.835080112,0.218707084655762,-0.044798731803894,-0.0465990900993347,0.228059620380167
4.840080112,0.197687149047852,-0.0342296361923218,-0.0315930247306824,0.203100950525003
4.845080112,0.172870635986328,-0.0281085968017578,-0.0285674929618835,0.177455492038451
4.850080112,0.164898872375488,-0.031230092048645,-0.0418354868888855,0.172965790615672
4.855080112,0.125308036804199,-0.0313965082168579,-0.0429845452308655,0.136145201695242
4.860080112,0.111017227172852,-0.0295963287353516,-0.0421836972236633,0.122393756847387
4.865080112,0.0730047225952148,-0.023271918296814,-0.0463120341300964,0.0895325427299207
4.870080112,0.0471572875976563,-0.033010721206665,-0.0334157049655914,0.0665591979105794
4.875080112,0.0466413497924805,-0.0341570377349854,-0.0235592424869537,0.0624272107646403
4.880080112,0.0452156066894531,-0.0252697467803955,-0.0227822065353394,0.0565865719518287
4.885080112,0.0447063446044922,-0.0350754261016846,-0.00631338357925415,0.0571734341834487
4.890080112,0.0550212860107422,-0.023937463760376,0.0071617066860199,0.0604287524959087
4.895080112,0.0513629913330078,-0.0236374139785767,0.00323969125747681,0.0566337339199264
4.900080112,0.0228662490844727,-0.010932445526123,-0.0117498338222504,0.0279363975348521
4.905080112,-0.0233736038208008,-0.000523567199707031,-0.01227667927742,0.0264067478547624
4.910080112,-0.0612611770629883,0.00427544116973877,-0.0123032927513123,0.0626305215119848
4.915080112,-0.0928277969360352,-0.00364196300506592,0.00988554954528809,0.0934237007848672
4.920080112,-0.10759449005127,0.00909578800201416,-0.0130424499511719,0.108763105644787
4.925080112,-0.117938995361328,0.00657987594604492,0.00670385360717773,0.118312480522941
4.930080112,-0.131081581115723,0.0138176679611206,0.00733655691146851,0.132011870386707
4.935080112,-0.13563060760498,0.0298914909362793,0.00781604647636414,0.139105188732162
4.940080112,-0.130062103271484,0.002663254737854,0.0220217108726501,0.131940135603082
4.945080112,-0.0862140655517578,0.0104774236679077,0.0106890499591827,0.0875036987487359
4.950080112,-0.0382890701293945,0.00855147838592529,0.00575810670852661,0.0396526981027196
4.955080112,0.0154743194580078,-0.00729227066040039,0.00970637798309326,0.0196683895533847
4.960080112,0.0595407485961914,-0.00937902927398682,0.0043942928314209,0.060434896731983
4.965080112,0.0982742309570313,-0.0157907009124756,-0.000206589698791504,0.0995349857326901
4.970080112,0.104523658752441,-0.0202828645706177,-0.0152575969696045,0.107561071487196
4.975080112,0.157853126525879,-0.0406228303909302,-0.0160936117172241,0.16378897472379
4.980080112,0.144680976867676,-0.0312542915344238,-0.0204393565654755,0.149422833273614
4.985080112,0.0735235214233398,-0.0120301246643066,-0.0280272662639618,0.0795987421769847
4.990080112,0.0190458297729492,-0.00102901458740234,-0.0581479072570801,0.0611962549600809
4.995080112,0.0129489898681641,-0.00705635547637939,-0.0706830620765686,0.0722050119848678
5.000080112,-0.0457286834716797,0.00110697746276855,-0.0856400430202484,0.097090446799189
5.005080112,-0.161777496337891,0.0311471223831177,-0.0870851576328278,0.186348936766593
5.010080112,-0.181790351867676,0.0221579074859619,-0.100879430770874,0.209082195437549
5.015080112,-0.161128044128418,0.0313602685928345,-0.119578748941422,0.203088134191192
5.020080112,-0.138275146484375,0.0299997329711914,-0.121734857559204,0.186653089067869
5.025080112,-0.153448104858398,0.0332869291305542,-0.125658571720123,0.201107973940165
5.030080112,-0.125330924987793,0.0195053815841675,-0.124362856149673,0.17763564017039
5.035080112,-0.0856990814208984,0.0112235546112061,-0.131800770759583,0.157612638793076
5.040080112,-0.0336475372314453,0.00134909152984619,-0.130354464054108,0.134633811163953
5.045080112,-0.0144615173339844,0.000385403633117676,-0.127855271100998,0.128671109297586
5.050080112,0.0372562408447266,-0.0130966901779175,-0.137018203735352,0.14259571848537
5.055080112,0.0677165985107422,-0.0182136297225952,-0.131125509738922,0.148698262685981
5.060080112,0.0863475799560547,-0.0106954574584961,-0.118901520967484,0.14733590554544
5.065080112,0.0506629943847656,-0.0123996734619141,-0.113902807235718,0.125277054555772
5.070080112,0.0396633148193359,-0.0118348598480225,-0.114273250102997,0.121538545898748
5.075080112,-0.0267810821533203,-0.00185227394104004,-0.121862798929214,0.124784610601299
5.080080112,-0.10106086730957,0.0245884656906128,-0.110936641693115,0.152068504354214
5.085080112,-0.189369201660156,0.0322751998901367,-0.121255934238434,0.22716818583021
5.090080112,-0.233535766601563,0.0470408201217651,-0.123153507709503,0.268176396241471
5.095080112,-0.288714408874512,0.0640257596969605,-0.110311955213547,0.315632753781301
5.100080112,-0.320158004760742,0.0589460134506226,-0.106681972742081,0.342573822441591
5.105080112,-0.381688117980957,0.0597802400588989,-0.103357136249542,0.399927736126229
5.110080112,-0.422353744506836,0.0851801633834839,-0.10420498251915,0.443279848532278
5.115080112,-0.439491271972656,0.0819098949432373,-0.0990945994853973,0.457909978791604
5.120080112,-0.403419494628906,0.0799992084503174,-0.102256804704666,0.423796668353737
5.125080112,-0.37735652923584,0.0863825082778931,-0.0985386073589325,0.399461819243764
5.130080112,-0.309657096862793,0.06440269947052,-0.0966020524501801,0.330707093776609
5.135080112,-0.282281875610352,0.0551527738571167,-0.100973725318909,0.304828769913554
5.140080112,-0.258461952209473,0.0549834966659546,-0.115496009588242,0.288383588084263
5.145080112,-0.26561164855957,0.051255464553833,-0.102145373821259,0.289154539805701
5.150080112,-0.260533332824707,0.0651096105575562,-0.114578455686569,0.291967637602569
5.155080112,-0.215951919555664,0.0540368556976318,-0.123413234949112,0.25453101951249
5.160080112,-0.176065444946289,0.0540541410446167,-0.121726959943771,0.220767624087769
5.165080112,-0.16136360168457,0.0479048490524292,-0.123449832201004,0.20874134133374
5.170080112,-0.16121768951416,0.0539813041687012,-0.127085834741592,0.212263831125336
5.175080112,-0.126642227172852,0.049128532409668,-0.129428327083588,0.187626112925904
5.180080112,-0.118078231811523,0.0496286153793335,-0.134666323661804,0.185850711649946
5.185080112,-0.0904254913330078,0.042205810546875,-0.137871652841568,0.170196041622596
5.190080112,0.00825691223144531,0.02369225025177,-0.151459753513336,0.153523797034567
5.195080112,0.128481864929199,0.00454819202423096,-0.149795532226563,0.197400550002814
5.200080112,0.224917411804199,-0.0120556354522705,-0.132145702838898,0.261143001548278
5.205080112,0.26962947845459,-0.0193080902099609,-0.14598286151886,0.307219553180595
5.210080112,0.288748741149902,-0.0252735614776611,-0.148461997509003,0.325661715787689
5.215080112,0.333474159240723,-0.0301202535629272,-0.14165073633194,0.36356179070329
5.220080112,0.35364818572998,-0.0231308937072754,-0.148511230945587,0.38426249261511
5.225080112,0.372455596923828,-0.0224573612213135,-0.149667769670486,0.402029782517474
5.230080112,0.373214721679688,-0.0292612314224243,-0.135670036077499,0.398185643679017
5.235080112,0.354408264160156,-0.0248724222183228,-0.122531235218048,0.375816123517981
5.240080112,0.275739669799805,-0.00922286510467529,-0.139892548322678,0.309333722407139
5.245080112,0.211573600769043,-0.000252246856689453,-0.137285739183426,0.252211867987997
5.250080112,0.164557456970215,0.0234056711196899,-0.11234650015831,0.200620831876673
5.255080112,0.124154090881348,0.0336272716522217,-0.10899543762207,0.168597263037609
5.260080112,0.0639801025390625,0.018535852432251,-0.0915326178073883,0.113204467530979
5.265080112,0.0255060195922852,0.0382289886474609,-0.0728990137577057,0.0861758598175608
5.270080112,0.00731468200683594,0.0355521440505981,-0.0855356752872467,0.0929183042586385
5.275080112,-0.0222158432006836,0.0360196828842163,-0.0758544206619263,0.0868611212116982
5.280080112,-0.0471696853637695,0.0478297472000122,-0.0548151135444641,0.0867027139565226
5.285080112,-0.0375499725341797,0.0498896837234497,-0.0439091622829437,0.0763347595249594
5.290080112,0.0238761901855469,0.0269660949707031,-0.0341322422027588,0.0496210912166709
5.295080112,0.0794906616210938,0.0349147319793701,-0.0209150910377502,0.089304226256476
5.300080112,0.0655984878540039,0.0494743585586548,-0.0159675478935242,0.0837008742442648
5.305080112,0.00481796264648438,0.0475629568099976,-0.0254124999046326,0.0541409528543372
5.310080112,0.00211048126220703,0.0445327758789063,-0.0257903337478638,0.0515049859087955
5.315080112,0.0622930526733398,0.0393636226654053,-0.0341523289680481,0.0812176136970896
5.320080112,0.10155200958252,0.0243827104568481,-0.0232276916503906,0.106989966253272
5.325080112,0.162769317626953,0.0164713859558105,-0.0356264114379883,0.167434758960014
5.330080112,0.196559906005859,0.0158196687698364,-0.0349762439727783,0.200273303791252
5.335080112,0.144917488098145,0.0253304243087769,-0.0505509376525879,0.155557404355737
5.340080112,0.0846977233886719,0.0349960327148438,-0.0622612833976746,0.110792120944262
5.345080112,0.0518388748168945,0.0390332937240601,-0.0624454617500305,0.0900572187800897
5.350080112,0.0691146850585938,0.043198823928833,-0.0782049596309662,0.112955716059277
5.355080112,0.10255241394043,0.0448770523071289,-0.082990974187851,0.139350095893166
5.360080112,0.0565376281738281,0.0441176891326904,-0.0853439271450043,0.111474031928797
5.365080112,-0.027226448059082,0.0544544458389282,-0.114520221948624,0.129697522646736
5.370080112,-0.0871133804321289,0.0601038932800293,-0.13404181599617,0.170787667802102
5.375080112,-0.120261192321777,0.0682862997055054,-0.136389315128326,0.19423650117138
5.380080112,-0.171787261962891,0.0865535736083984,-0.125684529542923,0.229780298205736
5.385080112,-0.169794082641602,0.0885562896728516,-0.152670755982399,0.244909384615948
5.390080112,-0.194685935974121,0.0802842378616333,-0.15148501098156,0.259414496640466
5.395080112,-0.253705024719238,0.088982105255127,-0.155028134584427,0.310351054672207
5.400080112,-0.292094230651855,0.0961931943893433,-0.151611775159836,0.342867759630505
5.405080112,-0.285727500915527,0.0972683429718018,-0.142261072993279,0.333675813047802
5.410080112,-0.280051231384277,0.0922178030014038,-0.146722361445427,0.329333063536564
5.415080112,-0.25667667388916,0.08354651927948,-0.122055143117905,0.296243807975882
5.420080112,-0.204492568969727,0.0899983644485474,-0.104730010032654,0.246749450594508
5.425080112,-0.187705993652344,0.0814104080200195,-0.0951162576675415,0.225628670739509
5.430080112,-0.153487205505371,0.066390872001648,-0.101122498512268,0.195427300662806
5.435080112,-0.166472434997559,0.0830761194229126,-0.0825010240077972,0.203521822404187
5.440080112,-0.134224891662598,0.069393515586853,-0.0514747798442841,0.159629052829854
5.445080112,-0.127083778381348,0.0687938928604126,-0.0485944747924805,0.152460845474917
5.450080112,-0.021784782409668,0.0451624393463135,-0.0201366543769836,0.0540343180011011
5.455080112,0.0223274230957031,0.0437060594558716,-0.0105855762958527,0.0502074484590687
5.460080112,0.0466985702514648,0.0358537435531616,0.0012633204460144,0.0588883975741928
5.465080112,0.0178298950195313,0.0425608158111572,0.000133752822875977,0.0461448381591742
5.470080112,0.0289325714111328,0.0451005697250366,0.00656214356422424,0.0539834864207628
5.475080112,0.110180854797363,0.0328718423843384,-0.00219342112541199,0.115000825570306
5.480080112,0.167567253112793,0.0176246166229248,0.0192174911499023,0.169583971509599
5.485080112,0.174480438232422,0.0187947750091553,0.0157379806041718,0.17619407177008
5.490080112,0.159220695495605,0.0235803127288818,0.00124123692512512,0.160962112596724
5.495080112,0.205770492553711,0.0108166933059692,0.00955066084861755,0.206275814342151
5.500080112,0.166363716125488,0.0287297964096069,-0.0120601356029511,0.169256415286337
5.505080112,0.118769645690918,0.0238091945648193,-0.0182130038738251,0.122494163099633
5.510080112,0.131847381591797,0.0276756286621094,-0.0263214707374573,0.137267957937163
5.515080112,0.160945892333984,0.0156921148300171,-0.033187597990036,0.165079494145606
5.520080112,0.108864784240723,0.0328727960586548,-0.0333668887615204,0.118513759682649
5.525080112,0.0100870132446289,0.0512211322784424,-0.0450033843517304,0.0689250087500363
5.530080112,-0.120362281799316,0.0738061666488648,-0.0500167012214661,0.149786846940629
5.535080112,-0.143020629882813,0.0677287578582764,-0.0584539771080017,0.168697814606012
5.540080112,-0.158819198608398,0.0714446306228638,-0.0676552951335907,0.186829098512691
5.545080112,-0.156105041503906,0.0671157836914063,-0.0760041475296021,0.186144951167496
5.550080112,-0.171379089355469,0.0725383758544922,-0.0709388852119446,0.199160572591642
5.555080112,-0.211853981018066,0.0713963508605957,-0.0694113373756409,0.234088619855147
5.560080112,-0.252338409423828,0.0799670219421387,-0.0468055605888367,0.268812495935136
5.565080112,-0.314661979675293,0.0791113376617432,-0.0409440398216248,0.327027796367097
5.570080112,-0.284618377685547,0.0926427841186523,-0.0466205179691315,0.302925368797857
5.575080112,-0.25167179107666,0.0774266719818115,-0.0246004164218903,0.264459373904658
5.580080112,-0.336982727050781,0.0542688369750977,-0.0109263956546783,0.341499415986636
5.585080112,-0.410844802856445,0.0682181119918823,-0.0589950680732727,0.42062760358167
5.590080112,-0.417457580566406,0.0405341386795044,-0.125291258096695,0.437734791085081
5.595080112,-0.28016185760498,0.0248925685882568,-0.149323225021362,0.31844580694111
5.600080112,-0.195248603820801,0.00846314430236816,-0.0602655112743378,0.204513016589683
5.605080112,-0.0322389602661133,-0.00017392635345459,0.0128107964992523,0.0346914588387648
5.610080112,0.168853759765625,-0.0291953086853027,0.0577643811702728,0.180833298836807
5.615080112,0.365849494934082,-0.0470379590988159,0.0820107460021973,0.377867946509811
5.620080112,0.521117210388184,-0.0679513216018677,0.0796915292739868,0.531536705137312
5.625080112,0.576460838317871,-0.105618834495544,-0.0140860080718994,0.586225939325224
5.630080112,0.597208976745606,-0.121274471282959,-0.0486384332180023,0.611336042186616
5.635080112,0.620744705200195,-0.147946953773499,-0.0650478303432465,0.641438625588839
5.640080112,0.661552429199219,-0.160760641098022,-0.0727246105670929,0.684678369227311
5.645080112,0.704959869384766,-0.163445472717285,-0.0681067109107971,0.726857182716006
5.650080112,0.779617309570313,-0.192182421684265,-0.0576126277446747,0.80501953234796
5.655080112,0.810044288635254,-0.176080703735352,-0.0630467832088471,0.83135495466829
5.660080112,0.82363224029541,-0.15323543548584,-0.068193644285202,0.840536459092327
5.665080112,0.819450378417969,-0.149026870727539,-0.0580038726329804,0.834908605853729
5.670080112,0.800234794616699,-0.134219169616699,-0.0335355997085571,0.812105380142035
5.675080112,0.772418022155762,-0.116580605506897,-0.0252925753593445,0.781575558023459
5.680080112,0.689349174499512,-0.0967918634414673,-0.00300872325897217,0.696117807290748
5.685080112,0.591316223144531,-0.0666409730911255,-0.00060620903968811,0.595059881472315
5.690080112,0.451455116271973,-0.0281074047088623,-0.00743377208709717,0.452390328339423
5.695080112,0.300662994384766,0.0124801397323608,0.00681036710739136,0.300998955447175
5.700080112,0.148017883300781,0.045978307723999,-0.00216159224510193,0.155009583700623
5.705080112,0.0315790176391602,0.0483068227767944,0.00991582870483398,0.0585585787118047
5.710080112,-0.0633316040039063,0.0713573694229126,0.00382259488105774,0.0954849646189928
5.715080112,-0.172961235046387,0.0770949125289917,0.00582846999168396,0.189454969396604
5.720080112,-0.294939994812012,0.0915405750274658,0.0184443593025208,0.309369474586859
5.725080112,-0.431618690490723,0.100863099098206,0.0156275629997253,0.443522580559244
5.730080112,-0.541477203369141,0.107134699821472,0.0236196219921112,0.55247922333546
5.735080112,-0.596026420593262,0.0888350009918213,0.0417559742927551,0.604055223332743
5.740080112,-0.625674247741699,0.0887150764465332,0.0391232371330261,0.633142366896911
5.745080112,-0.675262451171875,0.0625137090682983,0.032465010881424,0.678926593024353
5.750080112,-0.73412036895752,0.0493639707565308,0.0235059559345245,0.736153548990679
5.755080112,-0.797755241394043,0.0359673500061035,0.0303188264369965,0.799140980475064
5.760080112,-0.812874794006348,0.0281463861465454,0.0390411615371704,0.814298386390483
5.765080112,-0.818743705749512,0.0114030838012695,0.059867262840271,0.821008754633352
5.770080112,-0.789566993713379,0.0092930793762207,0.0570365786552429,0.791678956516195
5.775080112,-0.752352714538574,0.0120561122894287,0.0347351431846619,0.75325061373301
5.780080112,-0.685589790344238,0.0169587135314941,0.00611820816993713,0.685826793775302
5.785080112,-0.635358810424805,0.0301945209503174,-0.00273725390434265,0.636081771188877
5.790080112,-0.581806182861328,0.031141996383667,-0.0274578630924225,0.583285686949399
5.795080112,-0.558540344238281,0.0393993854522705,-0.00061488151550293,0.559928572047464
5.800080112,-0.479328155517578,0.041425347328186,0.0048774778842926,0.481139615770367
5.805080112,-0.386598587036133,0.0238844156265259,0.0167947709560394,0.387699622310392
5.810080112,-0.275948524475098,0.0174945592880249,0.0256845653057098,0.27769289630743
5.815080112,-0.130063056945801,-0.00253140926361084,0.00946080684661865,0.13043126036781
5.820080112,0.0265731811523438,0.00136351585388184,0.0235899984836578,0.0355595438735938
5.825080112,0.215792655944824,-0.0112435817718506,0.0158752501010895,0.216667745768847
5.830080112,0.393131256103516,-0.0203325748443604,0.0447529852390289,0.396192412614293
5.835080112,0.536216735839844,-0.0352307558059692,0.0483917593955994,0.539547362450043
5.840080112,0.649506568908691,-0.035770058631897,0.0590840280056,0.653168586595709
5.845080112,0.722586631774902,-0.0429593324661255,0.0379064083099365,0.72485435810009
5.850080112,0.769696235656738,-0.0488849878311157,0.0333060622215271,0.771965887199756
5.855080112,0.778889656066895,-0.0401624441146851,0.0141518115997314,0.780052813607402
5.860080112,0.766923904418945,-0.017911434173584,0.000873267650604248,0.767133532860964
5.865080112,0.726409912109375,-0.0140373706817627,0.0350981950759888,0.72739280411893
5.870080112,0.627829551696777,0.00291073322296143,0.0943920463323593,0.634892334780065
5.875080112,0.520219802856445,0.0156375169754028,0.118796810507774,0.533840666686208
5.880080112,0.445892333984375,0.0292437076568604,0.128680571913719,0.465009524129985
5.885080112,0.36297607421875,0.028344988822937,0.121024087071419,0.383668996008406
5.890080112,0.304460525512695,0.0339646339416504,0.0999403297901154,0.322238851588094
5.895080112,0.245054244995117,0.0468753576278687,0.0429702997207642,0.253170552791907
5.900080112,0.215949058532715,0.0611653327941895,0.0160897672176361,0.22502016448778
5.905080112,0.169698715209961,0.0665187835693359,0.0108003914356232,0.182589843547275
5.910080112,0.12260627746582,0.0836677551269531,-0.00809448957443237,0.148654341623378
5.915080112,0.0415248870849609,0.099939227104187,0.0064462423324585,0.108414571907146
5.920080112,-0.0328569412231445,0.114954710006714,0.00542572140693665,0.119681253302489
5.925080112,-0.132760047912598,0.123585820198059,0.00724229216575623,0.181524477885481
5.930080112,-0.27020263671875,0.140077590942383,0.0141000151634216,0.304680171329864
5.935080112,-0.427886009216309,0.158917546272278,0.0319751799106598,0.457562712124338
5.940080112,-0.617294311523438,0.158098936080933,0.0199376940727234,0.637530432429743
5.945080112,-0.764918327331543,0.183322429656982,0.016532838344574,0.786753135009167
5.950080112,-0.853736877441406,0.190568208694458,0.0345045328140259,0.875427587441207
5.955080112,-0.887063026428223,0.198474764823914,0.0302222371101379,0.909497899252025
5.960080112,-0.888477325439453,0.201708793640137,0.0245907604694366,0.911418181052073
5.965080112,-0.86543083190918,0.191017270088196,0.0103245079517365,0.886320888705331
5.970080112,-0.757495880126953,0.183392286300659,-0.000450491905212402,0.779379844508983
5.975080112,-0.551377296447754,0.169881105422974,-0.00609448552131653,0.57698670328833
5.980080112,-0.370246887207031,0.131353974342346,0.021476536989212,0.393443599138523
5.985080112,-0.231160163879395,0.112010955810547,0.0600493550300598,0.263794239182487
5.990080112,-0.0804967880249023,0.0683579444885254,0.0703170001506805,0.126874039768635
5.995080112,0.112374305725098,0.0304815769195557,0.0464643537998199,0.125363660176047
6.000080112,0.299970626831055,0.0137225389480591,0.0398122668266296,0.302912036120177
6.005080112,0.401596069335938,-0.01149582862854,0.0269627571105957,0.402664310875619
6.010080112,0.468366622924805,-0.0254319906234741,0.00300642848014832,0.469066219450159
6.015080112,0.528148651123047,-0.0322822332382202,-0.0058770477771759,0.52916696793783
6.020080112,0.550562858581543,-0.0451102256774902,-0.0325565338134766,0.553366353877883
6.025080112,0.538364410400391,-0.0310689210891724,-0.0250262320041657,0.539840558435296
6.030080112,0.498284339904785,-0.0425646305084229,-0.037825345993042,0.501527454845853
6.035080112,0.478903770446777,-0.016323447227478,-0.0234106183052063,0.479753408874768
6.040080112,0.43665599822998,-0.000671625137329102,-0.0314829349517822,0.437790003384869
6.045080112,0.405509948730469,-0.00730216503143311,-0.0260112583637238,0.406408938995193
6.050080112,0.43398380279541,-0.00716710090637207,-0.0397228300571442,0.435856870603087
6.055080112,0.478678703308105,-0.0142724514007568,-0.0328447222709656,0.480016436854795
6.060080112,0.425763130187988,-0.0137776136398315,-0.0119954645633698,0.426154850770437
6.065080112,0.373282432556152,0.00173425674438477,-0.00065237283706665,0.373287031239785
6.070080112,0.423216819763184,-0.0182843208312988,0.00720953941345215,0.423672952142663
6.075080112,0.55153751373291,-0.0381157398223877,0.0168383419513702,0.553109363902438
6.080080112,0.610631942749023,-0.0428924560546875,0.0283908694982529,0.612794560813587
6.085080112,0.576593399047852,-0.0296604633331299,0.0411017090082169,0.578816932539199
6.090080112,0.515653610229492,-0.0229669809341431,0.0345907658338547,0.517322577350835
6.095080112,0.423365592956543,0.00077974796295166,0.0343384593725205,0.424756592766268
6.100080112,0.255147933959961,0.0161018371582031,0.0491639822721481,0.260339844274291
6.105080112,0.104766845703125,0.0356876850128174,0.0342448353767395,0.115855131824777
6.110080112,-0.0335931777954102,0.0639727115631104,0.0153380036354065,0.0738665267536703
6.115080112,-0.225521087646484,0.0876597166061401,0.00856584310531616,0.242110223982439
6.120080112,-0.460258483886719,0.135861158370972,-0.00577187538146973,0.479926495298001
6.125080112,-0.682751655578613,0.148914456367493,-0.0159219801425934,0.698984154299813
6.130080112,-0.805946350097656,0.178294062614441,-0.0432432293891907,0.82656413476953
6.135080112,-0.865891456604004,0.175524353981018,-0.0478326380252838,0.884796459486991
6.140080112,-0.904977798461914,0.183054685592651,-0.0618124604225159,0.925372689185218
6.145080112,-0.926559448242188,0.165346503257751,-0.0677201747894287,0.943630170850818
6.150080112,-0.870957374572754,0.160781860351563,-0.0667279958724976,0.888183641131683
6.155080112,-0.835232734680176,0.153117775917053,-0.0781819820404053,0.852743335769255
6.160080112,-0.812312126159668,0.141049265861511,-0.0836952030658722,0.828704273382459
6.165080112,-0.738608360290527,0.11957311630249,-0.0903508961200714,0.753659952805674
6.170080112,-0.679329872131348,0.100784301757813,-0.10573998093605,0.694857894982247
6.175080112,-0.605895042419434,0.0882991552352905,-0.0979369580745697,0.620078374885476
6.180080112,-0.604194641113281,0.081646203994751,-0.10405820608139,0.61850252807053
6.185080112,-0.611071586608887,0.0793771743774414,-0.0901362001895905,0.622763000151315
6.190080112,-0.623950004577637,0.088231086730957,-0.0969798266887665,0.637576206945289
6.195080112,-0.617704391479492,0.0833650827407837,-0.109351068735123,0.632823915877822
6.200080112,-0.643540382385254,0.0796213150024414,-0.112222075462341,0.658086295089293
6.205080112,-0.615220069885254,0.0977734327316284,-0.122133284807205,0.634800691394977
6.210080112,-0.59359073638916,0.0987029075622559,-0.111391305923462,0.611964254939456
6.215080112,-0.541232109069824,0.0893514156341553,-0.121661901473999,0.561887435020812
6.220080112,-0.456585884094238,0.0772010087966919,-0.101946264505386,0.474155782586215
6.225080112,-0.313618659973145,0.0555950403213501,-0.0891812443733215,0.330757867237739
6.230080112,-0.122269630432129,0.0367604494094849,-0.0712672173976898,0.146219730003876
6.235080112,0.0870571136474609,0.00222229957580566,-0.0642679631710053,0.108232392296305
6.240080112,0.304926872253418,-0.0387717485427856,-0.0652627646923065,0.314233789339404
6.245080112,0.539059638977051,-0.0702750682830811,-0.0579859614372253,0.546704903325422
6.250080112,0.812748908996582,-0.107147216796875,-0.0450877845287323,0.821020233280618
6.255080112,1.06169128417969,-0.123828172683716,-0.0242903232574463,1.06916407490022
6.260080112,1.27899742126465,-0.154013156890869,-0.0305796563625336,1.28859984924738
6.265080112,1.48191261291504,-0.171109795570374,-0.0487675964832306,1.49255547063537
6.270080112,1.54958152770996,-0.182289958000183,-0.0467089414596558,1.56096581161149
6.275080112,1.57871723175049,-0.177171230316162,-0.07499960064888,1.59039702048739
6.280080112,1.55097389221191,-0.172649145126343,-0.0676736235618591,1.56202031387617
6.285080112,1.46878910064697,-0.173872709274292,-0.0529283583164215,1.47999140278712
6.290080112,1.35144805908203,-0.126307249069214,-0.0396917462348938,1.3579178223601
6.295080112,1.21455574035645,-0.109987258911133,-0.0226157307624817,1.21973534622618
6.300080112,1.10437393188477,-0.0966464281082153,-0.0374582707881928,1.10922740479269
6.305080112,0.960199356079102,-0.0899080038070679,-0.0276689231395721,0.964796259254251
6.310080112,0.771377563476563,-0.0592162609100342,-0.00141841173171997,0.773648449157008
6.315080112,0.566959381103516,-0.058618426322937,0.00192070007324219,0.569984867180376
6.320080112,0.362588882446289,-0.0285565853118897,-0.0150476098060608,0.364022810822618
6.325080112,0.199942588806152,-0.0230112075805664,-0.0393226742744446,0.205067859999845
6.330080112,0.0313835144042969,-0.0266139507293701,-0.0475757718086243,0.0629021574588371
6.335080112,-0.0887889862060547,-0.0226153135299683,-0.0514930486679077,0.105102190931841
6.340080112,-0.209771156311035,-0.0326623916625977,-0.0821344256401062,0.227633112100195
6.345080112,-0.343742370605469,-0.0415775775909424,-0.126748144626617,0.368717513110088
6.350080112,-0.481707572937012,-0.0351200103759766,-0.114780873060226,0.496437558786745
6.355080112,-0.608939170837402,-0.0356422662734985,-0.129895597696304,0.623658681673024
6.360080112,-0.720492362976074,-0.0318343639373779,-0.108204573392868,0.729267373147378
6.365080112,-0.792600631713867,-0.0426477193832397,-0.0949533879756928,0.799406489371881
6.370080112,-0.838245391845703,-0.0558763742446899,-0.0884407758712769,0.844748055331294
6.375080112,-0.941775321960449,-0.0591695308685303,-0.115935534238815,0.950727531176072
6.380080112,-1.13004875183105,-0.0559456348419189,-0.127235054969788,1.13856438324144
6.385080112,-1.22940731048584,-0.0445566177368164,-0.170800268650055,1.24201463720485
6.390080112,-1.31900310516357,-0.0460292100906372,-0.17814502120018,1.33177457859472
6.395080112,-1.3495922088623,-0.0538880825042725,-0.17533478140831,1.36200049237485
6.400080112,-1.35758018493652,-0.0582213401794434,-0.172460734844208,1.36972858189043
6.405080112,-1.31700611114502,-0.0642426013946533,-0.175240963697433,1.3301660061755
6.410080112,-1.23843574523926,-0.0842280387878418,-0.171078324317932,1.25303042686752
6.415080112,-1.12085914611816,-0.0871317386627197,-0.164219081401825,1.13617123358039
6.420080112,-0.969426155090332,-0.126032829284668,-0.161610543727875,0.990852820591808
6.425080112,-0.786906242370606,-0.159432053565979,-0.137310177087784,0.814551470883191
6.430080112,-0.583982467651367,-0.191081285476685,-0.106428205966949,0.623598062223533
6.435080112,-0.390920639038086,-0.216442584991455,-0.0646360814571381,0.451491042712768
6.440080112,-0.22662353515625,-0.241886019706726,-0.0503835380077362,0.335269405282462
6.445080112,-0.0748529434204102,-0.246770620346069,-0.0200581252574921,0.258652335372268
6.450080112,0.0483427047729492,-0.259077429771423,-0.0120613574981689,0.263824957247092
6.455080112,0.139413833618164,-0.261926412582397,-0.00648730993270874,0.296789062808184
6.460080112,0.223324775695801,-0.267733812332153,0.00908169150352478,0.348766149197501
6.465080112,0.281764030456543,-0.271411180496216,0.0134355127811432,0.39145307606552
6.470080112,0.345653533935547,-0.2714684009552,0.0425904393196106,0.441571516020614
6.475080112,0.357312202453613,-0.270577073097229,0.0413329303264618,0.450102625672732
6.480080112,0.400195121765137,-0.251906037330627,0.0554659068584442,0.476118949372803
6.485080112,0.458168983459473,-0.258104681968689,0.0593811571598053,0.529209756225338
6.490080112,0.521410942077637,-0.263309478759766,0.0663079619407654,0.587875835478689
6.495080112,0.615536689758301,-0.278021097183228,0.0788381099700928,0.679997495952175
6.500080112,0.714405059814453,-0.290750980377197,0.0945498049259186,0.777078109130815
6.505080112,0.795165061950684,-0.302531957626343,0.0991481244564056,0.856529866213365
6.510080112,0.86922550201416,-0.31152081489563,0.12532851099968,0.931829076137037
6.515080112,0.944663047790527,-0.32344651222229,0.142531901597977,1.00862344960981
6.520080112,1.0083065032959,-0.343603610992432,0.146831810474396,1.07531624494519
6.525080112,1.05608367919922,-0.333869099617004,0.136703372001648,1.11600588039071
6.530080112,1.0505428314209,-0.358737587928772,0.147058486938477,1.11980315065793
6.535080112,1.05248546600342,-0.363225221633911,0.147519618272781,1.1231296699646
6.540080112,1.01537990570068,-0.362922668457031,0.147781550884247,1.08836969957935
6.545080112,0.96585750579834,-0.369663000106812,0.145397037267685,1.04435231296779
6.550080112,0.900271415710449,-0.372966051101685,0.144695729017258,0.985154379381991
6.555080112,0.820169448852539,-0.357517838478088,0.146018028259277,0.906541887745872
6.560080112,0.720950126647949,-0.348246932029724,0.140443950891495,0.812877305701065
6.565080112,0.604111671447754,-0.345301389694214,0.129915118217468,0.707857259089439
6.570080112,0.476896286010742,-0.337855339050293,0.125423610210419,0.597751938293673
6.575080112,0.336345672607422,-0.321887254714966,0.106764703989029,0.477638480702237
6.580080112,0.222732543945313,-0.307798504829407,0.102228194475174,0.393446704717707
6.585080112,0.110742568969727,-0.292299628257751,0.102798819541931,0.329044961305972
6.590080112,-0.0125913619995117,-0.257874846458435,0.109358340501785,0.28038763430342
6.595080112,-0.157428741455078,-0.235750317573547,0.114914834499359,0.305887953440755
6.600080112,-0.291774749755859,-0.210540652275085,0.119003921747208,0.378974674941121
6.605080112,-0.42363166809082,-0.178416728973389,0.115510433912277,0.473960947473077
6.610080112,-0.516149520874023,-0.164880037307739,0.124005526304245,0.555853510517905
6.615080112,-0.606451988220215,-0.15778923034668,0.116017580032349,0.637292345871353
6.620080112,-0.690878868103027,-0.123521685600281,0.1244837641716,0.712788485279599
6.625080112,-0.789904594421387,-0.0960711240768433,0.120692521333694,0.804826449537593
6.630080112,-0.879903793334961,-0.073965311050415,0.124429136514664,0.891730992383815
6.635080112,-0.93508243560791,-0.0468964576721191,0.138751715421677,0.946483215729192
6.640080112,-0.972803115844727,-0.0277073383331299,0.146492123603821,0.984161338944318
6.645080112,-0.972901344299316,-0.0240169763565063,0.150555700063705,0.984774522271164
6.650080112,-0.987427711486816,-0.00906443595886231,0.132311105728149,0.996294072104391
6.655080112,-0.975626945495606,0.0197817087173462,0.110051721334457,0.982013561080263
6.660080112,-0.878995895385742,0.0403393507003784,0.0523709952831268,0.881478172427914
6.665080112,-0.785359382629395,0.0507761240005493,0.0393235981464386,0.787980913489486
6.670080112,-0.715242385864258,0.0527368783950806,0.0473819673061371,0.718747451964494
6.675080112,-0.661430358886719,0.0464229583740234,0.0936194062232971,0.669634082124568
6.680080112,-0.61308479309082,0.0396304130554199,0.0918167531490326,0.62118745102987
6.685080112,-0.529284477233887,0.0189077854156494,0.0961819589138031,0.538284805108383
6.690080112,-0.416179656982422,0.0143299102783203,0.0945994555950165,0.427036193095462
6.695080112,-0.322227478027344,0.000448942184448242,0.0942898690700531,0.335739971636079
6.700080112,-0.232913017272949,-0.0173364877700806,0.112084746360779,0.259059872983354
6.705080112,-0.173765182495117,-0.0170260667800903,0.15812486410141,0.235558269319187
6.710080112,-0.14029598236084,-0.0214684009552002,0.158798068761826,0.212980472223751
6.715080112,-0.0842523574829102,-0.0301789045333862,0.15561717748642,0.179515826458569
6.720080112,-0.0294857025146484,-0.0303395986557007,0.146439284086227,0.152428218591763
6.725080112,0.0507946014404297,-0.0373690128326416,0.141901850700378,0.155282548561552
6.730080112,0.131335258483887,-0.0386666059494019,0.124064803123474,0.184759659857725
6.735080112,0.224939346313477,-0.0526621341705322,0.137730777263641,0.268962407969917
6.740080112,0.332135200500488,-0.0685949325561523,0.147340416908264,0.369767838837538
6.745080112,0.415096282958984,-0.0788490772247315,0.154767602682114,0.449972345756409
