Time (s),Linear Acceleration x (m/s^2),Linear Acceleration y (m/s^2),Linear Acceleration z (m/s^2),Absolute acceleration (m/s^2)
0.014422764,0,0,0,0
0.019422764,-0.0222787857055664,0.00261914730072022,0.00765228271484375,0.0237015116784841
0.024422764,-0.0636224746704102,0.00907158851623535,0.0238723158836365,0.0685565494102715
0.029422764,-0.107251167297363,0.0180050134658813,0.0562278032302856,0.122427771574334
0.034422764,-0.153726577758789,0.00858163833618164,0.0743154883384705,0.170962852786643
0.039422764,-0.187771797180176,0.0263165235519409,0.111766785383224,0.220096845827087
0.044422764,-0.201253890991211,0.032917857170105,0.125769644975662,0.239592816163335
0.049422764,-0.200369834899902,0.0308994054794312,0.15012463927269,0.252270195055919
0.054422764,-0.188296318054199,0.030870795249939,0.150214165449142,0.242843169337155
0.059422764,-0.178624153137207,0.0264779329299927,0.141437232494354,0.22937340681058
0.064422764,-0.1046142578125,0.0128593444824219,0.127459853887558,0.165395042341708
0.069422764,-0.0293941497802734,0.0181689262390137,0.122754037380219,0.12752521168431
0.074422764,0.0413475036621094,-0.00876426696777344,0.0901885330677033,0.099601204467992
0.079422764,0.115607261657715,-0.0135061740875244,0.0675438940525055,0.134572037623921
0.084422764,0.173937797546387,-0.0266685485839844,0.0650148093700409,0.187596626665532
0.089422764,0.208447456359863,-0.020581841468811,0.0289477109909058,0.211451943081064
0.094422764,0.225216865539551,-0.0321099758148193,-0.00471454858779907,0.227543213563216
0.099422764,0.212331771850586,-0.0328962802886963,-0.0603369176387787,0.223175917661809
0.104422764,0.164766311645508,-0.0145382881164551,-0.109650433063507,0.19845028784468
0.109422764,0.106051445007324,-0.0124866962432861,-0.148083716630936,0.182569476371175
0.114422764,0.0137548446655273,-0.00251376628875732,-0.176990330219269,0.177541802863025
0.119422764,-0.0876607894897461,0.019721508026123,-0.174744337797165,0.196491565938489
0.124422764,-0.166406631469727,0.0333544015884399,-0.170917600393295,0.240866164553319
0.129422764,-0.251082420349121,0.0326989889144897,-0.165186792612076,0.302321488051821
0.134422764,-0.327386856079102,0.0468598604202271,-0.176154792308807,0.374711236694766
0.139422764,-0.379288673400879,0.0537756681442261,-0.162013828754425,0.415932928441864
0.144422764,-0.400769233703613,0.0544466972351074,-0.138557136058807,0.427526024326019
0.149422764,-0.390852928161621,0.0584301948547363,-0.104636669158936,0.408814055110575
0.154422764,-0.366923332214355,0.0523173809051514,-0.0614293217658997,0.37569056634507
0.159422764,-0.313028335571289,0.0550893545150757,-0.0323973298072815,0.319485778760278
0.164422764,-0.253157615661621,0.0387086868286133,0.0024152398109436,0.256111253534118
0.169422764,-0.170037269592285,0.0270534753799438,0.03443843126297,0.175586358036116
0.174422764,-0.0895929336547852,0.00585067272186279,0.050537109375,0.103029721712474
0.179422764,0.000959396362304688,0.00602877140045166,0.0463956594467163,0.0467955525822122
0.184422764,0.0989675521850586,-0.0105661153793335,0.072189211845398,0.122953249190786
0.189422764,0.143852233886719,-0.0225118398666382,0.0880307555198669,0.170146002144567
0.194422764,0.217366218566895,-0.0273576974868774,0.105703622102737,0.243248375763319
0.199422764,0.260759353637695,-0.0360022783279419,0.0989106297492981,0.281202626644479
0.204422764,0.28538990020752,-0.031069278717041,0.0759498178958893,0.296952976174468
0.209422764,0.297266960144043,-0.0480135679244995,0.0808051824569702,0.311773035732766
0.214422764,0.266566276550293,-0.0300596952438355,0.0484122633934021,0.272589274034969
0.219422764,0.241296768188477,-0.0353164672851563,0.0159600377082825,0.244389250997986
0.224422764,0.213274955749512,-0.021330714225769,0.0246941447257996,0.215756823537696
0.229422764,0.154027938842773,-0.0139063596725464,0.0171342492103577,0.155600691770628
0.234422764,0.0962953567504883,0.0025780200958252,-0.00977045297622681,0.0968240862114327
0.239422764,0.0454397201538086,0.0051952600479126,-0.0344615578651428,0.0572656778979736
0.244422764,-0.00231552124023438,0.0057297945022583,-0.0271421074867249,0.0278367775159592
0.249422764,-0.0332469940185547,0.00781989097595215,-0.0383367538452148,0.0513441330780274
0.254422764,-0.0761632919311523,0.0156008005142212,-0.0421879291534424,0.0884536792944778
0.259422764,-0.103782653808594,0.0167372226715088,-0.0376460254192352,0.11166108133175
0.264422764,-0.114395141601563,0.0181704759597778,-0.0242016315460205,0.118330611373962
0.269422764,-0.136682510375977,0.0258018970489502,-0.0136051774024963,0.139760321215132
0.274422764,-0.165684700012207,0.0242067575454712,-0.0141684710979462,0.168042055754664
0.279422764,-0.1776123046875,0.016571044921875,-0.0168924927711487,0.179181713961641
0.284422764,-0.173489570617676,0.0188828706741333,0.00382384657859802,0.174556053234078
0.289422764,-0.182140350341797,0.0178037881851196,0.0220081806182861,0.184326997779762
0.294422764,-0.180397987365723,0.0128610134124756,0.035152792930603,0.184240490561714
0.299422764,-0.153519630432129,0.0063631534576416,0.0619228780269623,0.16565992114294
0.304422764,-0.125768661499023,-0.00799477100372315,0.0589294135570526,0.139119906414704
0.309422764,-0.114357948303223,-0.00296437740325928,0.0645204484462738,0.131337032634439
0.314422764,-0.0955028533935547,0.00211238861083984,0.0815412402153015,0.125595505683139
0.319422764,0.00463104248046875,-0.0177028179168701,0.335112810134888,0.335612025757652
0.324422764,0.141637802124023,-0.0283740758895874,0.799768567085266,0.812709121439357
0.329422764,0.21943473815918,-0.0411372184753418,1.12151980400085,1.14352548979941
0.334422764,0.079075813293457,-0.0177903175354004,1.19046151638031,1.19321754161952
0.339422764,-0.275764465332031,0.00386571884155273,1.00368571281433,1.04088711887007
0.344422764,-0.338725090026855,0.0468548536300659,0.787262082099915,0.858319083927818
0.349422764,-0.221139907836914,0.0810966491699219,0.598471343517304,0.643154316129585
0.354422764,-0.108382225036621,0.0716519355773926,0.395664662122726,0.416450755106251
0.359422764,-0.0165843963623047,0.0342878103256226,0.176372975111008,0.180438694545089
0.364422764,0.0600519180297852,0.0223095417022705,-0.02652707695961,0.0693371063864253
0.369422764,0.117156982421875,-0.000424742698669434,-0.157954514026642,0.196661047078348
0.374422764,0.14559268951416,-0.00625371932983398,-0.174051553010941,0.227002826746592
0.379422764,0.169941902160645,-0.017080545425415,-0.168306946754456,0.239789956978633
0.384422764,0.168887138366699,-0.0105746984481812,-0.11842805147171,0.206542715021248
0.389422764,0.165182113647461,-0.0190780162811279,-0.103971511125565,0.19611011320174
0.394422764,0.145153045654297,-0.022045373916626,-0.0709702372550964,0.163071088025704
0.399422764,0.109899520874023,-0.0119680166244507,-0.0565455555915833,0.124171405594943
0.404422764,0.0502376556396484,-0.00500345230102539,-0.0370668470859528,0.0626323217834845
0.409422764,0.0124711990356445,-0.00970137119293213,-0.0123250186443329,0.0200387996894242
0.414422764,-0.0313825607299805,0.0110387802124023,-0.00339433550834656,0.0334401151327543
0.419422764,-0.0505084991455078,-0.00951337814331055,0.0188671946525574,0.0547501952844633
0.424422764,-0.0578670501708984,-0.000290513038635254,0.0232829749584198,0.0623760917036431
0.429422764,-0.0595798492431641,0.0121866464614868,0.0426452159881592,0.0742757513223002
0.434422764,-0.0701580047607422,0.00905168056488037,0.0423587262630463,0.0824520481472998
0.439422764,-0.0749616622924805,0.00505828857421875,0.0469910800457001,0.0886171467652471
0.444422764,-0.0883550643920898,0.00773251056671143,0.0245502889156342,0.0920278534425081
0.449422764,-0.0751314163208008,0.00585782527923584,0.00601708889007568,0.0755992671530791
0.454422764,-0.0767087936401367,-0.0144211053848267,0.00559532642364502,0.0782528911928019
0.459422764,-0.0521230697631836,-0.0197627544403076,0.0127265155315399,0.0571781869437999
0.464422764,-0.0461301803588867,-0.0059514045715332,0.0131377875804901,0.0483323309889722
0.469422764,-0.0400123596191406,0.0013498067855835,-0.00762426853179932,0.0407546361938716
0.474422764,-0.0237655639648438,-0.00326049327850342,-0.0189692378044128,0.0305820998276216
0.479422764,0.00134754180908203,0.00547647476196289,-0.0213288366794586,0.0220618883789366
0.484422764,0.00302314758300781,-0.00255715847015381,-0.0655285716056824,0.0656480934790278
0.489422764,0.00249004364013672,-0.0166066884994507,-0.0963592231273651,0.0978114630396505
0.494422764,-0.0141868591308594,-0.0181992053985596,-0.116672515869141,0.118932560757652
0.499422764,-0.0284786224365234,-0.0082770586013794,-0.120313495397568,0.123914804643163
0.504422764,-0.0254707336425781,0.00325930118560791,-0.127179026603699,0.129745466681399
0.509422764,-0.00603103637695313,0.00264072418212891,-0.107497543096542,0.107698972120347
0.514422764,-0.00315475463867188,-0.00256168842315674,-0.106166034936905,0.106243784282337
0.519422764,-0.00111007690429688,0.00416731834411621,-0.109395146369934,0.109480120854034
0.524422764,-0.000214576721191406,-0.00195145606994629,-0.105367332696915,0.105385620573324
0.529422764,0.0106134414672852,-0.00935840606689453,-0.0736434757709503,0.0749905755913296
0.534422764,0.00267791748046875,-0.0104200839996338,-0.0566167235374451,0.0576298774656611
0.539422764,0.025151252746582,-0.00446665287017822,-0.0236922204494476,0.0348404622875522
0.544422764,0.0221128463745117,-0.0029292106628418,-0.00523149967193604,0.022911281908866
0.549422764,0.0271520614624023,-0.00913035869598389,-0.00172853469848633,0.0286981832836031
0.554422764,0.0321683883666992,-0.0116691589355469,0.00750049948692322,0.0350318708168316
0.559422764,0.0253000259399414,-0.0207585096359253,0.0192345678806305,0.0379601848839161
0.564422764,0.0612945556640625,-0.0218327045440674,0.161580950021744,0.174189818737183
0.569422764,0.0770502090454102,-0.0346336364746094,0.323935240507126,0.334768970383765
0.574422764,0.0450296401977539,-0.0499695539474487,0.388097286224365,0.39388339441104
0.579422764,-0.0243043899536133,-0.0347810983657837,0.418394178152084,0.420540267377698
0.584422764,-0.0765838623046875,-0.0237815380096436,0.399232625961304,0.407206752335427
0.589422764,-0.10240650177002,-0.0129208564758301,0.322541892528534,0.338655152880818
0.594422764,-0.07464599609375,0.0080488920211792,0.244956493377686,0.256204006688984
0.599422764,-0.0340232849121094,0.00677454471588135,0.13997033238411,0.144205313078389
0.604422764,-0.0151519775390625,0.0026247501373291,0.0291987061500549,0.0330005481388555
0.609422764,0.0149993896484375,-0.0000630617141723633,-0.0546204745769501,0.0566425803580372
0.614422764,0.0405035018920898,0.00111150741577148,-0.124661087989807,0.131080723117704
0.619422764,0.036168098449707,-0.0221859216690063,-0.14705628156662,0.153055207078923
0.624422764,0.0151348114013672,-0.0154044628143311,-0.152110517024994,0.153635833646855
0.629422764,-0.00264644622802734,-0.00815808773040772,-0.146954596042633,0.147204658116203
0.634422764,-0.0230379104614258,-0.0000963211059570313,-0.128323554992676,0.130375186911246
0.639422764,-0.0290412902832031,-0.00749385356903076,-0.069575697183609,0.0757649788570722
0.644422764,-0.0199556350708008,-0.0166767835617065,0.0364393591880798,0.0447679503560402
0.649422764,-0.00886249542236328,-0.0215189456939697,0.133561670780182,0.135574071084722
0.654422764,-0.0317277908325195,-0.0213083028793335,0.209688737988472,0.213143292932026
0.659422764,-0.0350160598754883,-0.016169548034668,0.243025213479996,0.246066724934207
0.664422764,-0.0592727661132813,-0.0109219551086426,0.254133403301239,0.261182573269323
0.669422764,-0.0840482711791992,-0.0137268304824829,0.235944598913193,0.250843360525278
0.674422764,-0.091008186340332,-0.00568175315856934,0.185103595256805,0.206344646833657
0.679422764,-0.0784616470336914,-0.0103306770324707,0.115106403827667,0.139686925463075
0.684422764,-0.0499668121337891,0.0159882307052612,0.0543173551559448,0.0755160970061024
0.689422764,-0.0669479370117188,0.000856280326843262,-0.0416566729545593,0.0788545362535746
0.694422764,-0.0522375106811523,-0.00364482402801514,-0.0862729847431183,0.10092110859897
0.699422764,-0.018733024597168,-0.00469970703125,-0.085521936416626,0.0876756241220278
0.704422764,0.00908470153808594,-0.00206303596496582,-0.101582109928131,0.102008396599887
0.709422764,0.0277671813964844,-0.0108054876327515,-0.0811251699924469,0.0864237706420532
0.714422764,0.0457000732421875,-0.00675845146179199,-0.108829379081726,0.118228622219058
0.719422764,0.0679435729980469,-0.00430929660797119,-0.11394789814949,0.132736666530703
0.724422764,0.0647859573364258,-0.00793194770812988,-0.101687133312225,0.120832152772762
0.729422764,0.0723686218261719,-0.0108186006546021,-0.0888829529285431,0.115127923921353
0.734422764,0.0660324096679688,-0.0197861194610596,-0.0907818377017975,0.113987331341695
0.739422764,0.0497894287109375,-0.00747048854827881,-0.0993841290473938,0.111409158138012
0.744422764,0.0411949157714844,-0.015695333480835,-0.0720672309398651,0.08448106506096
0.749422764,0.0460605621337891,-0.0134232044219971,0.0262681543827057,0.0546971090251489
0.754422764,0.0112199783325195,-0.00922489166259766,0.118500113487244,0.119387032111777
0.759422764,-0.0423860549926758,-0.0144913196563721,0.180776879191399,0.186244076559247
0.764422764,-0.0799264907836914,-0.00947785377502441,0.198557987809181,0.214250666659423
0.769422764,-0.0929908752441406,-0.00736415386199951,0.220681264996529,0.239586632267417
0.774422764,-0.0671701431274414,0.0145059823989868,0.20664669573307,0.217773066540647
0.779422764,-0.0554914474487305,0.0331631898880005,0.182386428117752,0.193504281774473
0.784422764,-0.0439262390136719,0.0364207029342651,0.139060318470001,0.150312189289792
0.789422764,-0.0324687957763672,0.0298819541931152,0.0926863253116608,0.102654316934778
0.794422764,0.00260639190673828,0.0232656002044678,0.0437165796756744,0.0495905310536723
0.799422764,0.0184268951416016,0.0168002843856812,-0.00778767466545105,0.0261237037323242
0.804422764,0.0379676818847656,0.0127519369125366,-0.0495885014533997,0.0637430485552573
0.809422764,0.0415267944335938,-0.00671601295471191,-0.0699391663074493,0.0816153568252867
0.814422764,0.0411434173583984,-0.0130373239517212,-0.0806961953639984,0.09151299663968
0.819422764,0.0375223159790039,-0.00626957416534424,-0.0746868550777435,0.0838174091585205
0.824422764,0.0194578170776367,0.00120639801025391,-0.0531546473503113,0.056616946019031
0.829422764,0.0023956298828125,0.00717282295227051,-0.0373503565788269,0.0381082349132778
0.834422764,0.00326442718505859,0.00588583946228027,0.00798064470291138,0.0104398410378891
0.839422764,-0.0172710418701172,-0.00287222862243652,0.0402445197105408,0.0438880388177803
0.844422764,-0.0312690734863281,-0.0103518962860107,0.0795850455760956,0.0861318535314254
0.849422764,-0.0287370681762695,-0.00749421119689941,0.106086581945419,0.110165081390128
0.854422764,-0.0464973449707031,-0.0000876188278198242,0.124351620674133,0.132760447162049
0.859422764,-0.0630731582641602,0.00538361072540283,0.0873477756977081,0.107874188187887
0.864422764,-0.0528926849365234,0.00527012348175049,0.0705962777137756,0.0883699312455756
0.869422764,-0.0173568725585938,0.00862157344818115,0.0641738176345825,0.0670363440495848
0.874422764,-0.00160408020019531,0.0192610025405884,0.0265885889530182,0.032871147754068
0.879422764,-0.0134649276733398,0.0227837562561035,-0.0011732280254364,0.0264911360720049
0.884422764,0.00237846374511719,0.0135407447814941,-0.0374365746974945,0.0398811482295267
0.889422764,0.00494670867919922,0.00592935085296631,-0.0611859560012817,0.0616712926740248
0.894422764,0.0205268859863281,-0.00886917114257813,-0.0674744546413422,0.0710831715260271
0.899422764,0.0440082550048828,0.00174641609191895,-0.058116614818573,0.0729199382591023
0.904422764,0.0409917831420898,-0.00662112236022949,-0.0417042374610901,0.0588507346486706
0.909422764,0.0224761962890625,-0.00898420810699463,-0.0370160639286041,0.0442276427554167
0.914422764,-0.00423622131347656,-0.0162131786346436,-0.00866818428039551,0.0188666412266336
0.919422764,-0.00650215148925781,-0.0290637016296387,0.029243141412735,0.0417389272273634
0.924422764,-0.0119504928588867,-0.0111488103866577,0.0621937811374664,0.0643053393178438
0.929422764,-0.0193910598754883,-0.0106779336929321,0.0887956917285919,0.0915134216418802
0.934422764,-0.0217552185058594,-0.0102493762969971,0.0875310003757477,0.0907745298720642
0.939422764,-0.041539192199707,0.00112485885620117,0.0918298363685608,0.100794288744587
0.944422764,-0.0254154205322266,0.0179238319396973,0.0984629988670349,0.103257781779981
0.949422764,0.00576305389404297,-0.00349771976470947,0.100147426128387,0.100374069330076
0.954422764,0.00619125366210938,0.0157959461212158,0.102659523487091,0.104052012466696
0.959422764,-0.0229005813598633,0.0261728763580322,0.0525976121425629,0.0630552526485465
0.964422764,-0.0302009582519531,0.0090707540512085,0.0376200377941132,0.0490881218017581
0.969422764,-0.0169105529785156,0.0108127593994141,0.0128395557403564,0.0238272272721465
0.974422764,0.0226716995239258,0.0124180316925049,0.00752991437911987,0.0269242099415398
0.979422764,0.0226917266845703,0.0238521099090576,-0.0170693099498749,0.0370836749689928
0.984422764,0.00996017456054688,0.00422656536102295,-0.019750714302063,0.0225202053158776
0.989422764,-0.00453567504882813,-0.000144362449645996,-0.0252752304077148,0.0256793781238663
0.994422764,-0.000352859497070313,-0.000546455383300781,-0.0381641387939453,0.0381696818586969
0.999422764,0.00477123260498047,-0.0020442008972168,-0.027972936630249,0.0284504587238754
1.004422764,-0.00922298431396484,0.00756454467773438,-0.00643888115882874,0.0135552560438599
1.009422764,-0.00460052490234375,-0.0189940929412842,0.00879570841789246,0.0214313994552808
1.014422764,-0.0106382369995117,-0.0119963884353638,0.0155402421951294,0.0223290069065597
1.019422764,-0.0256881713867188,-0.0124732255935669,0.0353874266147614,0.0454723373966697
1.024422764,-0.0215263366699219,-0.012863039970398,0.0394189357757568,0.0467193050611856
1.029422764,-0.00622749328613281,-0.00230824947357178,0.0334920585155487,0.0341442187181082
1.034422764,-0.00849628448486328,-0.00460886955261231,0.036846250295639,0.0380929742793813
1.039422764,-0.0116710662841797,-0.00623500347137451,0.0382716059684753,0.0404945043173022
1.044422764,-0.02557373046875,-0.0124716758728027,0.0238033533096313,0.0370966038600255
1.049422764,0.00220203399658203,-0.0045236349105835,0.012824684381485,0.0137762388194695
1.054422764,0.0317611694335938,0.00640189647674561,0.0275669097900391,0.0425404593024167
1.059422764,0.0264129638671875,0.00106143951416016,0.0253808796405792,0.0366464236375276
1.064422764,0.00135707855224609,0.00889015197753906,0.00346750020980835,0.00963846575372497
1.069422764,0.0134143829345703,0.00131916999816895,0.00141593813896179,0.0135532564283543
1.074422764,0.0230627059936523,-0.00843906402587891,0.00533086061477661,0.0251301469211127
1.079422764,0.0173587799072266,0.0074390172958374,0.0195569694042206,0.0271871526731455
1.084422764,0.0117082595825195,0.00852036476135254,0.025439441204071,0.0292719170348227
1.089422764,0.0102682113647461,0.0003509521484375,0.0274661183357239,0.0293248527442779
1.094422764,-0.000130653381347656,0.00438356399536133,0.0593582093715668,0.0595199943162484
1.099422764,-0.0192041397094727,-0.000255584716796875,0.0418159961700439,0.0460156695183449
1.104422764,-0.0227127075195313,0.0112611055374146,0.0281688868999481,0.0378967778310324
1.109422764,-0.0171937942504883,0.00297403335571289,0.0274147391319275,0.0324967591738108
1.114422764,-0.0266122817993164,0.00450265407562256,0.0290640592575073,0.039663673264271
1.119422764,-0.0400638580322266,-0.00687313079833984,0.0328768193721771,0.0522803777666942
1.124422764,-0.0305633544921875,0.000591278076171875,0.027502715587616,0.0411201606547418
1.129422764,-0.0169467926025391,-0.00720977783203125,0.0182233452796936,0.0259087820841438
1.134422764,0.00346088409423828,-0.0017704963684082,0.0178423225879669,0.0182609104766814
1.139422764,0.0063629150390625,-0.0101182460784912,0.00916588306427002,0.0150625032397375
1.144422764,0.00939369201660156,-0.000480532646179199,-0.0184710025787354,0.0207280075644153
1.149422764,0.00296878814697266,0.00529921054840088,-0.00823625922203064,0.010233831221511
1.154422764,0.0133304595947266,-0.0135031938552856,-0.0089002251625061,0.0209583254398668
1.159422764,0.0292778015136719,-0.00798249244689941,-0.0281475186347961,0.0413907314798249
1.164422764,0.0194063186645508,-0.0125898122787476,-0.0148873627185822,0.0275089466544763
1.169422764,0.0111188888549805,-0.0148106813430786,-0.0209812819957733,0.0279857135946502
1.174422764,-0.00722694396972656,0.00200760364532471,-0.019432008266449,0.0208293575706412
1.179422764,0.00522327423095703,-0.0035550594329834,-0.0161417424678803,0.0173342692711055
1.184422764,-0.00418949127197266,0.000219464302062988,0.0111488103866577,0.011912009684997
1.189422764,-0.00992298126220703,-0.00393581390380859,0.00629505515098572,0.012392897464656
1.194422764,-0.00939846038818359,-0.0102405548095703,0.0204256176948547,0.0247063934780541
1.199422764,-0.0171184539794922,-0.000205874443054199,0.0192336440086365,0.0257491147961489
1.204422764,-0.0282096862792969,-0.00812089443206787,0.0225224792957306,0.0369999648645746
1.209422764,-0.0354909896850586,-0.00841379165649414,0.0192981660366058,0.0412652571934337
1.214422764,-0.0116291046142578,0.0000815391540527344,0.00953254103660584,0.015037023022446
1.219422764,-0.011509895324707,-0.00530421733856201,0.0130099654197693,0.0181623680224801
1.224422764,-0.0158672332763672,-0.000867843627929688,0.010070264339447,0.0188130930012991
1.229422764,-0.0115957260131836,0.00268089771270752,-0.00523918867111206,0.0130037368571627
1.234422764,0.0167360305786133,0.00215244293212891,0.0106756985187531,0.0199674302044018
1.239422764,0.01263427734375,0.0198491811752319,0.0341998636722565,0.0415119938394545
1.244422764,0.00288200378417969,-0.00369644165039063,0.0127945244312286,0.0136260589352929
1.249422764,0.00592994689941406,-0.00365018844604492,0.0035189688205719,0.00780200535001531
1.254422764,0.0123119354248047,-0.00594246387481689,0.00524258613586426,0.0146417669767013
1.259422764,0.00276756286621094,-0.0114277601242065,-0.00266391038894653,0.0120560990471699
1.264422764,-0.00205135345458984,-0.012851357460022,0.0118106007575989,0.0175742917301471
1.269422764,0.016880989074707,-0.00788378715515137,0.0150448083877563,0.0239471950648173
1.274422764,-0.00382328033447266,0.0000545978546142578,0.0112432837486267,0.0118756845231686
1.279422764,-0.0132722854614258,-0.00285971164703369,0.00877299904823303,0.0161646844811166
1.284422764,-0.00408077239990234,-0.00566351413726807,0.00632083415985107,0.00941706112538196
1.289422764,0.00746726989746094,-0.00416481494903564,0.0125305950641632,0.0151697599171269
1.294422764,0.00739097595214844,-0.00221621990203857,0.0071524977684021,0.0105212347424827
1.299422764,0.0023345947265625,-0.00719201564788818,0.0157606303691864,0.017480643330578
1.304422764,-0.00973415374755859,0.00945389270782471,-0.000828027725219727,0.0135946852271725
1.309422764,-0.0159311294555664,0.00166332721710205,0.000100940465927124,0.0160180439548289
1.314422764,0.00592041015625,0.00407850742340088,0.0163554549217224,0.0178657881135274
1.319422764,0.0202350616455078,-0.00382339954376221,0.0153072774410248,0.0256590889652234
1.324422764,0.00481986999511719,0.000266790390014648,0.0126140415668488,0.0135061603919183
1.329422764,-0.0115995407104492,-0.00674355030059814,-0.0160137116909027,0.0208917155224127
1.334422764,-0.010066032409668,0.0153124332427979,-0.00562512874603272,0.0191686643691487
1.339422764,-0.0083160400390625,0.00019383430480957,-0.00347891449928284,0.00901648156224655
1.344422764,0.00684165954589844,-0.00188875198364258,-0.00346186757087708,0.00789684851545142
1.349422764,-0.00432491302490234,-0.00122857093811035,0.00579684972763062,0.0073360565692796
1.354422764,-0.0154027938842773,0.0056307315826416,0.0170346200466156,0.0236459188387732
1.359422764,-0.0108757019042969,-0.00405871868133545,0.00455978512763977,0.0124717973706917
1.364422764,0.00369167327880859,-0.0106183290481567,0.0136984288692474,0.0177207312732356
1.369422764,0.0217456817626953,-0.00518596172332764,0.0157879889011383,0.0273684027276475
1.374422764,0.007843017578125,-0.00518691539764404,0.0269388258457184,0.0285327417893731
1.379422764,-0.0164508819580078,-0.0102337598800659,0.0152797996997833,0.0246745544507829
1.384422764,-0.0123968124389648,0.00484931468963623,0.000848829746246338,0.013338565273076
1.389422764,-0.00553703308105469,-0.00277137756347656,0.0112746059894562,0.0128629704639914
1.394422764,0.0123691558837891,0.000247716903686523,0.0258130729198456,0.0286246766707872
1.399422764,0.0161285400390625,-0.00537180900573731,0.0194054245948792,0.025798384435722
1.404422764,-0.00895309448242188,0.00614476203918457,0.000487476587295532,0.0108698498035869
1.409422764,-0.0201625823974609,0.00825965404510498,-0.00280341506004334,0.0219684034439943
1.414422764,-0.00328826904296875,0.0059044361114502,0.00232291221618652,0.00714639771194217
1.419422764,0.0120849609375,0.000506997108459473,0.00377494096755981,0.0126709710061009
1.424422764,0.00930118560791016,0.000255703926086426,0.00456526875495911,0.0103643194188339
1.429422764,-0.00831508636474609,0.00624871253967285,-0.00517821311950684,0.0116189913834069
1.434422764,-0.0213155746459961,-0.00198960304260254,-0.00750219821929932,0.0226846913330956
1.439422764,-0.0211677551269531,-0.00380885601043701,-0.00859159231185913,0.0231602396290731
1.444422764,0.00634098052978516,0.000746250152587891,0.00123640894889832,0.00650335532308267
1.449422764,0.0203685760498047,0.00378501415252686,-0.00259962677955627,0.0208797337584676
1.454422764,0.00192546844482422,-0.00573348999023438,-0.000704079866409302,0.00608901179654092
1.459422764,-0.0145998001098633,0.00320732593536377,0.0030343234539032,0.0152528102894689
1.464422764,-0.028294563293457,0.00261878967285156,-0.00571122765541077,0.0289837625688938
1.469422764,0.0101079940795898,0.00465583801269531,0.0204742252826691,0.023303267428388
1.474422764,0.00762176513671875,-0.00385010242462158,0.00913849472999573,0.0125070651397335
1.479422764,0.0171852111816406,-0.00876939296722412,0.0189341902732849,0.0270321530344171
1.484422764,-0.00864124298095703,-0.00720202922821045,-0.00350522994995117,0.0117824845538609
1.489422764,-0.0141448974609375,-0.00634193420410156,0.0070873498916626,0.0170449048726134
1.494422764,-0.00388145446777344,-0.00884425640106201,0.0114908814430237,0.0150108932582558
1.499422764,0.0222911834716797,-0.00886738300323486,0.0260163247585297,0.0353889318267086
1.504422764,0.0306558609008789,-0.00410747528076172,0.000836551189422607,0.030941121160175
1.509422764,-0.0107479095458984,-0.00799894332885742,-0.00664365291595459,0.0149545570998529
1.514422764,-0.0230979919433594,-0.00402522087097168,0.0000172853469848633,0.023446107004337
1.519422764,-0.00206279754638672,0.000842571258544922,0.00710439682006836,0.00744563726084628
1.524422764,0.0182600021362305,-0.00109338760375977,0.0135118961334229,0.0227419109044866
1.529422764,0.00892353057861328,0.00404500961303711,0.0082341730594635,0.0127981681005605
1.534422764,-0.0219459533691406,-0.00373387336730957,0.0123704075813293,0.0254675021023227
1.539422764,-0.0301094055175781,0.00926637649536133,0.00153008103370667,0.0315401836067176
1.544422764,-0.0173940658569336,0.00881290435791016,-0.00395351648330689,0.0198960072085028
1.549422764,0.00541400909423828,0.00455248355865479,0.0121983885765076,0.0141009675160177
1.554422764,0.0153188705444336,0.00239443778991699,0.0267924070358276,0.0309553582092077
1.559422764,-0.00419521331787109,0.00938868522644043,0.00743195414543152,0.0126878354136322
1.564422764,-0.0396823883056641,0.00514626502990723,0.0134680867195129,0.0422204375307015
1.569422764,-0.0206594467163086,0.00502514839172363,0.000044703483581543,0.0212618638266799
1.574422764,0.00726032257080078,0.00123369693756104,0.00944513082504273,0.0119768438358358
1.579422764,0.0217475891113281,-0.00197374820709229,0.0188719928264618,0.028861833402994
1.584422764,0.00431919097900391,0.00365006923675537,0.0181315541267395,0.0189929374030744
1.589422764,-0.0234889984130859,0.000650525093078613,0.00234973430633545,0.0236151959690587
1.594422764,-0.0323715209960938,0.000410079956054688,-0.00833052396774292,0.0334287476096254
1.599422764,0.0144853591918945,0.00476598739624023,0.00298771262168884,0.0155391986115476
1.604422764,0.0283298492431641,0.00855982303619385,0.0122344493865967,0.0320239391759439
1.609422764,0.00862693786621094,0.00865828990936279,0.0176720917224884,0.0214870395110653
1.614422764,-0.00454998016357422,-0.00602591037750244,0.00178351998329163,0.00775853458440517
1.619422764,-0.0243282318115234,-0.00952565670013428,-0.00425907969474793,0.0264715084286908
1.624422764,-0.0184164047241211,-0.00780057907104492,0.00222787261009216,0.0201240257695386
1.629422764,0.0113639831542969,0.00582873821258545,0.0220708847045898,0.0254997696837696
1.634422764,0.0197858810424805,-0.000689983367919922,0.0208439230918884,0.0287476311291166
1.639422764,-0.000144004821777344,0.00761091709136963,0.021187037229538,0.0225130482815239
1.644422764,-0.0225067138671875,0.00583159923553467,-0.00791692733764648,0.0245608928423401
1.649422764,-0.0122318267822266,0.00465095043182373,0.0169072151184082,0.0213799637373361
1.654422764,0.0214138031005859,0.0134930610656738,0.0138945281505585,0.0288733713424555
1.659422764,0.0116872787475586,0.00776267051696777,0.0108678936958313,0.0177471871422495
1.664422764,-0.0127582550048828,0.00641977787017822,0.0120068192481995,0.018658786861181
1.669422764,-0.0198125839233398,0.000119328498840332,0.00634622573852539,0.0208045019679478
1.674422764,-0.00479507446289063,0.00593721866607666,0.0120643973350525,0.0142756081359603
1.679422764,0.0118999481201172,-0.000288605690002441,0.00482922792434692,0.012845758087831
1.684422764,0.0247287750244141,-0.00542426109313965,0.0256358981132507,0.0360296293998093
1.689422764,0.00501155853271484,-0.00390172004699707,0.00743252038955689,0.00977657903323778
1.694422764,-0.0250225067138672,-0.00718760490417481,-0.00276118516921997,0.0261803676452942
1.699422764,-0.0337667465209961,-0.0146276950836182,-0.00121775269508362,0.0368190922715226
1.704422764,0.000735282897949219,-0.0184030532836914,0.0115756988525391,0.0217533862887385
1.709422764,0.0265121459960938,0.0181128978729248,0.00855669379234314,0.0332293238470047
1.714422764,0.0113716125488281,-0.000254631042480469,0.0148850977420807,0.0187335139181029
1.719422764,-0.0285415649414063,-0.00168883800506592,-0.00608468055725098,0.029231771082089
1.724422764,-0.0326833724975586,-0.00256741046905518,-0.00649562478065491,0.0334213640598621
1.729422764,0.00793933868408203,-0.00333905220031738,0.00936052203178406,0.0127201313296884
1.734422764,0.0183200836181641,0.0108466148376465,0.0121814906597137,0.0245288245112861
1.739422764,0.0173320770263672,-0.00495195388793945,0.0306451916694641,0.0355534880681825
1.744422764,-0.00912284851074219,0.00686156749725342,-0.00393456220626831,0.012074280650387
1.749422764,-0.0394296646118164,-0.0000153779983520508,-0.00496554374694824,0.0397411035652763
1.754422764,-0.00778675079345703,-0.000419735908508301,-0.0015178918838501,0.00794441073480928
1.759422764,0.0325355529785156,-0.00640344619750977,-0.000996530055999756,0.0331746801487928
1.764422764,0.0291242599487305,-0.00074613094329834,-0.000109046697616577,0.0291340199788501
1.769422764,-0.00649261474609375,0.000174522399902344,0.00383961200714111,0.0075450066053413
1.774422764,-0.0119590759277344,0.00303566455841064,-0.00602036714553833,0.013728786433024
1.779422764,-0.00873088836669922,-0.00462126731872559,0.00220516324043274,0.0101216237936332
1.784422764,0.0135717391967773,0.00302183628082275,0.0218865871429443,0.0259296412643742
1.789422764,0.0323581695556641,0.0163983106613159,0.0255519151687622,0.0443717939498704
1.794422764,-0.00940036773681641,0.0107901096343994,0.00808361172676086,0.0164358802033467
1.799422764,-0.0295877456665039,-0.00856125354766846,0.00101074576377869,0.0308180363250513
1.804422764,-0.0171947479248047,0.00650691986083984,0.0151703357696533,0.023835655007509
1.809422764,0.00145053863525391,-0.0102804899215698,0.0183295011520386,0.0210656865029945
1.814422764,0.0183858871459961,-0.0110388994216919,0.0229986011981964,0.0314457279079562
1.819422764,0.00522422790527344,0.00230586528778076,0.019612044095993,0.0204264986122146
1.824422764,-0.0268173217773438,-0.00784182548522949,0.012055367231369,0.0304301635443117
1.829422764,-0.0146398544311523,0.00498640537261963,0.00160819292068481,0.0155491434097047
1.834422764,-0.00227069854736328,0.00496125221252441,0.00354704260826111,0.00650781120455226
1.839422764,0.0105600357055664,0.00110089778900146,0.00654891133308411,0.0124745568936641
1.844422764,0.00234127044677734,0.00104784965515137,-0.00225284695625305,0.00341392085629595
1.849422764,-0.00922107696533203,-0.0055462121963501,-0.00461822748184204,0.0117096863835698
1.854422764,-0.0190391540527344,0.004036545753479,-0.0048367977142334,0.0200543686211283
1.859422764,-0.00288867950439453,-0.0129222869873047,-0.0278839766979218,0.0308682057585409
1.864422764,0.0243349075317383,-0.00410687923431397,-0.0118297636508942,0.027367818503847
1.869422764,0.0134267807006836,-0.00398063659667969,0.000977605581283569,0.0140385049193862
1.874422764,-0.0198516845703125,-0.00667703151702881,-0.00440970063209534,0.0214036816885152
1.879422764,-0.0182313919067383,-0.0121176242828369,-0.00082021951675415,0.0219064654650801
1.884422764,-0.00586128234863281,-0.0175225734710693,-0.014443963766098,0.0234525755748867
1.889422764,0.0200614929199219,0.00235748291015625,-0.000158518552780151,0.0202001572265992
1.894422764,0.0259428024291992,0.00549793243408203,0.00535410642623901,0.0270540702030894
1.899422764,0.00225257873535156,-0.00598955154418945,0.00460898876190186,0.00788616611965522
1.904422764,-0.00558376312255859,-0.000364303588867188,0.00331965088844299,0.0065062439037318
1.909422764,-0.00177478790283203,-0.00231051445007324,-0.0023561418056488,0.00374696588353326
1.914422764,0.00836372375488281,-0.00329101085662842,0.00648793578147888,0.011084941957946
1.919422764,0.0239295959472656,0.0090705156326294,0.0242128968238831,0.0352301602131635
1.924422764,-0.00385856628417969,-0.00194525718688965,0.00823786854743958,0.00930242105569557
1.929422764,-0.0193929672241211,-0.00308096408843994,-0.00204789638519287,0.0197426795819255
1.934422764,-0.0170764923095703,0.00106823444366455,-0.000884532928466797,0.0171327205349001
1.939422764,-0.00626564025878906,-0.00538492202758789,0.00315368175506592,0.00884315224950895
1.944422764,0.00866985321044922,0.00131988525390625,0.0000906586647033691,0.00877021497841995
1.949422764,-0.0126953125,-0.00393593311309814,-0.00894954800605774,0.0160236368673335
1.954422764,0.00101757049560547,-0.00791096687316895,-0.00342926383018494,0.00868209058919094
1.959422764,-0.00512218475341797,-0.00548911094665527,-0.00259295105934143,0.00794295353309952
1.964422764,0.00417137145996094,-0.00296342372894287,0.00759625434875488,0.00915889186447879
1.969422764,0.00978565216064453,-0.00687074661254883,-0.00182420015335083,0.0120951996024234
1.974422764,0.00413703918457031,0.00184762477874756,0.0092175304889679,0.0102709142169899
1.979422764,-0.00370883941650391,-0.0137728452682495,-0.00420182943344116,0.0148695032596348
1.984422764,0.00743007659912109,0.00205707550048828,-0.000177145004272461,0.00771161320581204
1.989422764,0.00628471374511719,0.00206577777862549,-0.000145614147186279,0.00661711932555161
1.994422764,0.00580501556396484,-0.00441646575927734,0.0194030702114105,0.0207287845550498
1.999422764,-0.00341415405273438,0.000704050064086914,0.0121062099933624,0.0125981131441153
2.004422764,-0.00106620788574219,-0.00704467296600342,0.00901630520820618,0.0114916481002981
2.009422764,-0.0131025314331055,0.00504958629608154,-0.00393319129943848,0.0145823401933664
2.014422764,-0.00361919403076172,-0.0026324987411499,0.00345221161842346,0.0056521128892508
2.019422764,-0.000581741333007813,-0.00517368316650391,-0.000625133514404297,0.0052436830946127
2.024422764,0.00276374816894531,-0.00066530704498291,-0.00934553146362305,0.00976831079271236
2.029422764,-0.0000162124633789063,-0.00613903999328613,0.00745955109596252,0.00966089941135975
2.034422764,-0.000829696655273438,0.00673246383666992,0.00013965368270874,0.00678483374910059
2.039422764,-0.00535297393798828,0.00215435028076172,-0.00434070825576782,0.0072206165439449
2.044422764,-0.00347328186035156,-0.00148582458496094,-0.00604596734046936,0.00712917124641734
2.049422764,0.00210762023925781,0.000623583793640137,-0.0088825523853302,0.00915044571038783
2.054422764,0.000742912292480469,-0.00342321395874023,0.00160619616508484,0.0038535929471554
2.059422764,-0.000565528869628906,-0.0115594863891602,-0.00720286369323731,0.0136316834568192
2.064422764,-0.000573158264160156,-0.00726258754730225,-0.0037153959274292,0.00817788818556247
2.069422764,0.00392627716064453,-0.00608587265014648,-0.00238263607025147,0.00762433294782325
2.074422764,0.0106287002563477,-0.00435733795166016,0.00337082147598267,0.0119715538083913
2.079422764,0.00202178955078125,-0.0126250982284546,0.00914233922958374,0.0157182411501593
2.084422764,0.003997802734375,-0.00943338871002197,0.0077996551990509,0.0128765628364649
2.089422764,-0.00911808013916016,0.00174403190612793,0.0111863017082214,0.0145366563769354
2.094422764,-0.00422954559326172,-0.00313806533813477,0.0114442706108093,0.0125979299809658
2.099422764,0.0112228393554688,-0.00811970233917236,0.00365784764289856,0.0143269514780388
2.104422764,0.0120563507080078,-0.00152909755706787,0.00149589776992798,0.0122446495201613
2.109422764,-0.013239860534668,-0.00123953819274902,0.00693610310554504,0.0149979961394679
2.114422764,-0.0136137008666992,0.00258171558380127,-0.00752264261245728,0.0157666819121325
2.119422764,-0.00577545166015625,0.00251054763793945,0.00744438171386719,0.00975076973489402
2.124422764,0.0145664215087891,-0.000190496444702148,0.00789037346839905,0.016567284567423
2.129422764,0.0149135589599609,0.0113761425018311,0.00366246700286865,0.0191113715787565
2.134422764,-0.0121355056762695,0.0018845796585083,0.00989460945129395,0.0157710315040478
2.139422764,-0.0198841094970703,0.00116229057312012,-0.0127144455909729,0.0236301895158218
2.144422764,-0.00848579406738281,-0.00250625610351563,-0.0118100345134735,0.014756928400581
2.149422764,0.00822830200195313,-0.00253093242645264,0.0052432119846344,0.0100797740400482
2.154422764,0.0239686965942383,0.00388503074645996,0.00951668620109558,0.0260798618972132
2.159422764,-0.00384521484375,-0.013906717300415,-0.0000153779983520508,0.0144285376858187
2.164422764,-0.0194063186645508,-0.00942552089691162,-0.0053439736366272,0.0222261940627984
2.169422764,-0.0171270370483398,-0.0150023698806763,-0.0136542916297913,0.0265489393385728
2.174422764,0.00135898590087891,-0.0127815008163452,0.00261673331260681,0.0131171985967404
2.179422764,0.00867462158203125,-0.0118253231048584,0.00730803608894348,0.0163858084207964
2.184422764,0.0171432495117188,-0.00222909450531006,0.0250150561332703,0.03040744809229
2.189422764,-0.0152006149291992,-0.00373542308807373,0.013913094997406,0.0209424519166107
2.194422764,-0.0221014022827148,-0.0116297006607056,0.00530940294265747,0.0255325611705428
2.199422764,-0.00400257110595703,-0.0101133584976196,0.00635224580764771,0.012595698565796
2.204422764,0.012761116027832,-0.0148475170135498,0.0161585509777069,0.0253849091675073
2.209422764,-0.000851631164550781,0.00261068344116211,-0.00103598833084106,0.00293499838024334
2.214422764,-0.0183343887329102,-0.00600886344909668,-0.00488194823265076,0.0199020016256063
2.219422764,-0.0241069793701172,-0.00206279754638672,-0.0176373720169067,0.0299412504704029
2.224422764,0.00939083099365234,-0.00458025932312012,0.000182032585144043,0.0104498621082015
2.229422764,0.0231361389160156,-0.0101597309112549,0.011640340089798,0.0278208298498884
2.234422764,0.0148191452026367,0.00458610057830811,0.0147785842418671,0.021425357295624
2.239422764,-0.020380973815918,0.00234055519104004,0.000988036394119263,0.0205387075592293
2.244422764,-0.0350465774536133,-0.00695943832397461,0.010468065738678,0.0372327379238568
2.249422764,-0.0125598907470703,-0.0069575309753418,0.00371536612510681,0.0148311172301609
2.254422764,0.00465679168701172,-0.00953805446624756,0.0149347484111786,0.0183223061300298
2.259422764,0.0190610885620117,-0.0116809606552124,-0.000480920076370239,0.0223607071247161
2.264422764,-0.00183963775634766,-0.0115855932235718,-0.0155198872089386,0.0194544888494874
2.269422764,-0.0280246734619141,-0.0022280216217041,-0.00812941789627075,0.0292648908818382
2.274422764,-0.00209236145019531,-0.00782668590545654,-0.0193299055099487,0.0209590132335585
2.279422764,0.0163984298706055,-0.00971579551696777,-0.00226619839668274,0.0191948128389371
2.284422764,0.0226211547851563,-0.0067436695098877,0.00468146800994873,0.0240647016395541
2.289422764,0.000979423522949219,0.000252008438110352,0.00197950005531311,0.00222288082432902
2.294422764,-0.0225410461425781,0.00714612007141113,-0.0136208534240723,0.0272890718287911
2.299422764,-0.0319099426269531,0.00754797458648682,0.00429031252861023,0.0330699733959198
2.304422764,0.00278759002685547,0.00741040706634522,0.0110145509243011,0.0135648488053051
2.309422764,0.018437385559082,0.00927412509918213,0.00956341624259949,0.022746549471046
2.314422764,0.00422763824462891,0.00656569004058838,0.0124006271362305,0.014654581679746
2.319422764,-0.0206403732299805,-0.00100982189178467,-0.00597673654556274,0.0215119996062915
2.324422764,-0.0244836807250977,0.0109062194824219,0.0022834837436676,0.0269000100976723
2.329422764,0.00151824951171875,0.0029292106628418,0.00338125228881836,0.00472421673166883
2.334422764,0.026179313659668,0.00848257541656494,0.00443413853645325,0.0278742198805536
2.339422764,0.0308208465576172,0.00181591510772705,0.0117689669132233,0.0330413485259182
2.344422764,-0.00816059112548828,-0.0116794109344482,0.00830957293510437,0.0164940258777815
2.349422764,-0.0158538818359375,-0.000597238540649414,0.00597438216209412,0.0169527432989783
2.354422764,0.00767135620117188,-0.01064133644104,0.0157997012138367,0.0205357811067214
2.359422764,0.028040885925293,-0.000854372978210449,0.0303398370742798,0.04132223312401
2.364422764,0.0238399505615234,0.00899326801300049,0.031248539686203,0.0403198877087938
2.369422764,0.00485897064208984,0.00599038600921631,0.0257144272327423,0.0268463421744584
2.374422764,-0.0115089416503906,-0.00190114974975586,0.0120329558849335,0.0167589419597971
2.379422764,-0.00378704071044922,-0.0057675838470459,0.0252390503883362,0.0261651746655794
2.384422764,0.0174379348754883,-0.00229454040527344,0.0382828414440155,0.0421298283573626
2.389422764,0.0202884674072266,-0.00282752513885498,0.0384649634361267,0.0435794701698806
2.394422764,-0.00496768951416016,-0.00557732582092285,0.0297787487506866,0.0307011136537154
2.399422764,-0.0181484222412109,-0.0090336799621582,-0.00127953290939331,0.0203127991170641
2.404422764,-0.0165872573852539,-0.0105358362197876,-0.00734513998031616,0.0209783706170257
2.409422764,0.00321578979492188,-0.00723731517791748,0.000377386808395386,0.00792858472823424
2.414422764,0.00387096405029297,-0.00258684158325195,0.00167080760002136,0.00494648461958502
2.419422764,-0.0145244598388672,-0.0145595073699951,-0.0319219827651978,0.0379730453365198
2.424422764,-0.0149765014648438,-0.000805139541625977,-0.0353325307369232,0.0383840015381875
2.429422764,-0.0174961090087891,0.00949525833129883,-0.0300359725952148,0.0360337815246475
2.434422764,-0.00697994232177734,0.0041428804397583,-0.034164160490036,0.0351151379769809
2.439422764,-0.00135993957519531,-0.00216078758239746,-0.0186972618103027,0.0188707720517055
2.444422764,0.00414371490478516,0.00751769542694092,-0.00978434085845947,0.0130161224555897
2.449422764,-0.0147914886474609,0.0170998573303223,-0.0301363468170166,0.0376748278907927
2.454422764,-0.0146446228027344,0.0171053409576416,-0.0127058625221252,0.0258553013663095
2.459422764,-0.00718307495117188,0.0170776844024658,-0.00248056650161743,0.0186921662862634
2.464422764,0.00307750701904297,0.0170475244522095,0.000796407461166382,0.0173413783836562
2.469422764,0.000537872314453125,0.0170131921768188,-0.00133016705513,0.017073586590596
2.474422764,-0.000120162963867188,0.00291633605957031,0.0213673710823059,0.0215658063173905
2.479422764,-0.00376796722412109,0.0149738788604736,0.0100787281990051,0.0184389638331337
2.484422764,-0.0155229568481445,0.022874116897583,0.00863358378410339,0.0289607697085347
2.489422764,0.000823974609375,0.0216854810714722,0.0186968445777893,0.0286445635439621
2.494422764,-0.000364303588867188,0.00577783584594727,0.0186516940593719,0.0195295108861432
2.499422764,-0.000374794006347656,0.00558125972747803,0.020309716463089,0.0210659800034043
2.504422764,-0.0142126083374023,0.00146794319152832,-0.0158291757106781,0.0213240684824795
2.509422764,-0.0165634155273438,-0.0077207088470459,0.0228122472763062,0.0292293466370297
2.514422764,-0.00348186492919922,-0.00410628318786621,0.00532904267311096,0.00757519906114538
2.519422764,0.0158500671386719,-0.01414954662323,0.0110703110694885,0.023958006701698
2.524422764,0.0310440063476563,-0.0232231616973877,0.0259279608726501,0.0466401621389765
2.529422764,0.0206260681152344,-0.017408013343811,0.0364299714565277,0.0453389064137636
2.534422764,-0.00031280517578125,-0.0217670202255249,0.0123474299907684,0.0250271860973888
2.539422764,-0.00698661804199219,-0.0225480794906616,0.0013449490070343,0.0236439761506691
2.544422764,-0.0199680328369141,-0.00944173336029053,-0.00360497832298279,0.0223800029698854
2.549422764,-0.0172786712646484,-0.0146474838256836,-0.00312510132789612,0.0228662966263684
2.554422764,0.00507164001464844,-0.0169229507446289,0.00241085886955261,0.0178303122471879
2.559422764,0.0185279846191406,-0.0155130624771118,0.000724881887435913,0.0241757476661347
2.564422764,0.0187444686889648,0.00330495834350586,-0.0267508327960968,0.0328311576306505
2.569422764,0.008148193359375,0.000297307968139648,-0.0159896910190582,0.0179485839534665
2.574422764,-0.0115413665771484,0.00593340396881104,-0.0188979208469391,0.0229246556672591
2.579422764,-0.00561714172363281,0.00581598281860352,-0.00784173607826233,0.0112636922015292
2.584422764,0.000162124633789063,0.0112202167510986,-0.000615119934082031,0.011238234775614
2.589422764,-0.00427532196044922,0.00446724891662598,0.00902843475341797,0.0109429120824998
2.594422764,0.00551128387451172,0.0134049654006958,0.0142349302768707,0.0203150335300406
2.599422764,0.00707149505615234,0.0146822929382324,0.0177023112773895,0.0240613298222448
2.604422764,-0.00192451477050781,0.0180438756942749,0.0189833343029022,0.0262612297584879
2.609422764,-0.0074310302734375,0.00908613204956055,0.00303590297698975,0.0121241376366524
2.614422764,-0.0128927230834961,0.00735962390899658,-0.00105032324790955,0.0148825250382684
2.619422764,-0.00919628143310547,-0.00537717342376709,-0.0133797228336334,0.0171027064914007
2.624422764,-0.00891876220703125,-0.00181686878204346,-0.0101688802242279,0.013647397425569
2.629422764,-0.00312900543212891,-0.0102847814559937,-0.0145637094974518,0.018101630835867
2.634422764,0.0101737976074219,-0.0134779214859009,-0.0124209225177765,0.0209628204574074
2.639422764,0.01922607421875,-0.00886404514312744,0.0052657425403595,0.0218160782604399
2.644422764,0.0164794921875,-0.0104228258132935,-0.0208978652954102,0.0285819826918504
2.649422764,0.00524330139160156,-0.0102676153182983,-0.0194786190986633,0.0226347682956671
2.654422764,0.01422119140625,-0.00608861446380615,-0.0230495035648346,0.0277595591767483
2.659422764,-0.00642967224121094,-0.00999462604522705,-0.0109641849994659,0.0161693100537977
2.664422764,0.0073699951171875,-0.00517189502716064,0.000829875469207764,0.00904179293579152
2.669422764,-0.00139808654785156,-0.00657927989959717,-0.000588804483413696,0.00675190793126024
2.674422764,-0.00064849853515625,-0.00977647304534912,0.0209143757820129,0.0230956941854491
2.679422764,0.000169754028320313,-0.00972795486450195,0.0153476297855377,0.0181717270040534
2.684422764,0.00798416137695313,0.00135612487792969,0.0432266294956207,0.0439787153647016
2.689422764,-0.00319194793701172,0.0155788660049438,0.0173472762107849,0.0235333293344961
2.694422764,-0.0167207717895508,0.0349862575531006,0.00874558091163635,0.0397505674461649
2.699422764,-0.0235261917114258,0.0348060131072998,0.000281959772109985,0.042012138081528
2.704422764,-0.0233592987060547,0.0189070701599121,-0.00592479109764099,0.0306306592750011
2.709422764,0.00944900512695313,0.0115697383880615,-0.00751039385795593,0.0167197057437921
2.714422764,-0.0119810104370117,0.0174098014831543,-0.0210351347923279,0.0298181604815929
2.719422764,0.000916481018066406,0.0209486484527588,-0.0158509612083435,0.0262857143840939
2.724422764,-0.00023651123046875,0.0066680908203125,-0.0258305668830872,0.0266784099648332
2.729422764,-0.00910568237304688,-0.000403165817260742,-0.0435433685779572,0.0444870873543195
2.734422764,0.00338363647460938,0.0033719539642334,-0.0168971419334412,0.0175593984762597
2.739422764,-0.00914287567138672,-0.00149703025817871,-0.025564044713974,0.0271910584066601
2.744422764,-0.0111551284790039,-0.00770664215087891,-0.00033065676689148,0.0135623950142399
2.749422764,-0.0167245864868164,0.0032576322555542,0.00934386253356934,0.0194327488563422
2.754422764,-0.0269155502319336,0.00556159019470215,0.0151604413986206,0.0313881683629765
2.759422764,-0.0338478088378906,0.00369775295257568,0.0174124538898468,0.0382431835820543
2.764422764,-0.0578851699829102,0.00167942047119141,0.0131527185440063,0.0593844033578456
2.769422764,-0.055088996887207,0.0146279335021973,0.0252766907215118,0.06235130399931
2.774422764,-0.0425481796264648,0.00772202014923096,0.00288400053977966,0.0433392967619976
2.779422764,-0.0199108123779297,0.00449979305267334,0.010453999042511,0.0229341379399101
2.784422764,0.00242424011230469,0.0138665437698364,0.0159604549407959,0.0212813086571309
2.789422764,0.0239524841308594,0.0109635591506958,0.00100019574165344,0.026361364092389
2.794422764,0.0338954925537109,0.00242352485656738,0.00159755349159241,0.034019554161505
2.799422764,0.062291145324707,0.000922799110412598,-0.00232222676277161,0.0623412470295524
2.804422764,0.0616044998168945,0.00270164012908936,0.0058293342590332,0.0619386341065123
2.809422764,0.0528182983398438,0.000115156173706055,0.0145123600959778,0.0547758568715854
2.814422764,0.0414218902587891,-0.000790119171142578,-0.00510296225547791,0.0417425143552303
2.819422764,0.044642448425293,0.011358380317688,0.00211745500564575,0.0461133887341531
2.824422764,0.000742912292480469,0.00639510154724121,0.00803619623184204,0.0102970720280339
2.829422764,-0.0248146057128906,0.00236880779266357,0.0148630440235138,0.0290221636803619
2.834422764,-0.0582170486450195,0.0162081718444824,-0.0127420127391815,0.0617599261343657
2.839422764,-0.0787057876586914,0.0192753076553345,-0.0125796794891357,0.0820023586991996
2.844422764,-0.10588550567627,0.0333998203277588,-0.0160444378852844,0.112181604094881
2.849422764,-0.125375747680664,0.0376336574554443,-0.0303563475608826,0.134375883688988
2.854422764,-0.150250434875488,0.04886794090271,-0.0365203619003296,0.162163515198935
2.859422764,-0.184609413146973,0.0568362474441528,-0.0547387599945068,0.200766845598916
2.864422764,-0.191606521606445,0.0569285154342651,-0.0544992089271545,0.207181270305393
2.869422764,-0.18143367767334,0.0556800365447998,-0.055141806602478,0.19763366286918
2.874422764,-0.145969390869141,0.0558029413223267,-0.0387580990791321,0.161006899153915
2.879422764,-0.131617546081543,0.0525830984115601,-0.0276809632778168,0.144410513478329
2.884422764,-0.121740341186523,0.0515391826629639,-0.0167039632797241,0.133251718229177
2.889422764,-0.140842437744141,0.0526238679885864,-0.00697833299636841,0.150514321189714
2.894422764,-0.153497695922852,0.0581579208374023,0.0253886580467224,0.166097773516586
2.899422764,-0.188568115234375,0.0655316114425659,0.0226299166679382,0.200909032424383
2.904422764,-0.226646423339844,0.0722947120666504,0.02239128947258,0.238948731843859
2.909422764,-0.232912063598633,0.0875842571258545,0.0280376076698303,0.250409941715397
2.914422764,-0.212116241455078,0.077975869178772,0.0744739472866058,0.237949374631795
2.919422764,-0.170398712158203,0.0799351930618286,0.0471854209899902,0.194040769296065
2.924422764,-0.138338088989258,0.0822585821151733,0.049693763256073,0.168443970813292
2.929422764,-0.0660829544067383,0.0708663463592529,0.0329738259315491,0.102353647253025
2.934422764,0.0272769927978516,0.0494054555892944,0.0126203596591949,0.0578291177176967
2.939422764,0.16844367980957,0.0419098138809204,0.00721576809883118,0.173729021975543
2.944422764,0.335766792297363,-0.00186896324157715,0.00744971632957459,0.335854626448186
2.949422764,0.487005233764648,-0.0167834758758545,-0.00155991315841675,0.487296845983736
2.954422764,0.651165008544922,-0.0510954856872559,0.0132738053798676,0.653301470165335
2.959422764,0.753243446350098,-0.0787663459777832,0.00306057929992676,0.757356715077985
2.964422764,0.795256614685059,-0.0831338167190552,0.0163058340549469,0.799756334708794
2.969422764,0.767884254455566,-0.0628374814987183,0.0202164053916931,0.770716212602826
2.974422764,0.652606010437012,-0.0523611307144165,0.00782924890518189,0.65475002100544
2.979422764,0.506905555725098,-0.0490366220474243,-0.0000600516796112061,0.509271868782281
2.984422764,0.348076820373535,-0.0287380218505859,-0.00404912233352661,0.349284614852854
2.989422764,0.18217658996582,-0.00655925273895264,0.0124284327030182,0.182717814313552
2.994422764,0.0137414932250977,0.0231446027755737,0.0150961577892303,0.0308609016992673
2.999422764,-0.166041374206543,0.06690514087677,0.0166901648044586,0.179790426400678
3.004422764,-0.284394264221191,0.0845181941986084,0.0236311256885529,0.297627036362315
3.009422764,-0.35898494720459,0.0788611173629761,-0.0234544575214386,0.368292519240948
3.014422764,-0.412949562072754,0.104633688926697,-0.051607072353363,0.429114017006405
3.019422764,-0.442934989929199,0.099181056022644,-0.071268230676651,0.459464305339519
3.024422764,-0.419953346252441,0.105899333953857,-0.0822863578796387,0.440847509524087
3.029422764,-0.357213020324707,0.0796253681182861,-0.0915777087211609,0.377263592030943
3.034422764,-0.275983810424805,0.085097074508667,-0.104280710220337,0.307055438366732
3.039422764,-0.17545223236084,0.0597167015075684,-0.0940362513065338,0.207827781682651
3.044422764,-0.0638866424560547,0.0368345975875855,-0.0706723034381867,0.102141397763132
3.049422764,0.0351696014404297,0.0180975198745728,-0.0342209935188293,0.0523019836000987
3.054422764,0.113731384277344,-0.000754833221435547,0.00441670417785645,0.113819615263046
3.059422764,0.161170959472656,-0.0126495361328125,0.0372576415538788,0.165904251892076
3.064422764,0.18641471862793,-0.0171017646789551,0.0838202834129334,0.205106698056619
3.069422764,0.176036834716797,-0.0383710861206055,0.120624348521233,0.216821449315688
3.074422764,0.111021041870117,-0.03481125831604,0.153618291020393,0.19270722555083
3.079422764,0.0485715866088867,-0.0298141241073608,0.153812691569328,0.164031780792001
3.084422764,-0.0162410736083984,-0.0155601501464844,0.138197436928749,0.140015793102814
3.089422764,-0.0449914932250977,-0.0048593282699585,0.117804005742073,0.126196795928968
3.094422764,-0.0281572341918945,-0.00223004817962647,0.109070628881454,0.112668562770706
3.099422764,0.0689878463745117,-0.013309121131897,0.10255828499794,0.124316762644526
3.104422764,0.252035140991211,-0.046594500541687,0.0761935710906982,0.267391510805302
3.109422764,0.43669319152832,-0.0634812116622925,0.0210653841495514,0.44178564731176
3.114422764,0.572413444519043,-0.0883924961090088,-0.00901854038238525,0.579268261606974
3.119422764,0.619810104370117,-0.106341958045959,-0.0697822868824005,0.632726437793524
3.124422764,0.507280349731445,-0.0900086164474487,-0.0604274272918701,0.51873536435022
3.129422764,0.332164764404297,-0.0502396821975708,-0.07101771235466,0.343367109442888
3.134422764,0.109416961669922,-0.0119751691818237,-0.083199679851532,0.137977037601943
3.139422764,-0.0636281967163086,0.0156985521316528,-0.0931600034236908,0.113902494240915
3.144422764,-0.235140800476074,0.0484485626220703,-0.0839477479457855,0.254333803600392
3.149422764,-0.391133308410645,0.061861515045166,-0.1011703312397,0.408714506612
3.154422764,-0.514752388000488,0.0716357231140137,-0.106045544147491,0.530421865322132
3.159422764,-0.561550140380859,0.0821459293365479,-0.114369601011276,0.578936023670843
3.164422764,-0.570029258728027,0.0796891450881958,-0.106418132781982,0.585327715588213
3.169422764,-0.54050350189209,0.0783464908599854,-0.12310928106308,0.559855430688633
3.174422764,-0.477270126342773,0.077444314956665,-0.117963939905167,0.497694571535901
3.179422764,-0.368640899658203,0.0435034036636353,-0.080922394990921,0.379917218670327
3.184422764,-0.268039703369141,0.0219849348068237,-0.0479811429977417,0.273186401608951
3.189422764,-0.147987365722656,0.00041663646697998,0.0074259340763092,0.148174149217677
3.194422764,-0.0478487014770508,-0.0214506387710571,0.0589911937713623,0.0789277459408079
3.199422764,0.0211067199707031,-0.0398575067520142,0.100196540355682,0.109879302744677
3.204422764,0.0583839416503906,-0.0549323558807373,0.140298753976822,0.161585855608382
3.209422764,0.0557336807250977,-0.0604190826416016,0.173918649554253,0.192365291508616
3.214422764,0.0412721633911133,-0.0586750507354736,0.145980685949326,0.162654584073209
3.219422764,0.0115976333618164,-0.0523357391357422,0.143662467598915,0.153337664280792
3.224422764,-0.00566959381103516,-0.0511085987091064,0.143278107047081,0.152226308879199
3.229422764,-0.015620231628418,-0.0434809923171997,0.136890649795532,0.144477120439386
3.234422764,-0.0573406219482422,-0.0275185108184814,0.124452367424965,0.139762681430905
3.239422764,-0.0803127288818359,-0.0276675224304199,0.0548458099365234,0.101112259817879
3.244422764,-0.0805168151855469,-0.0142611265182495,0.0057121217250824,0.0819692966408471
3.249422764,-0.0689172744750977,-0.00189244747161865,-0.0224286615848541,0.0724997719927221
3.254422764,-0.0629377365112305,-0.00161433219909668,-0.0646395683288574,0.090233245200132
3.259422764,-0.0302419662475586,0.00405144691467285,-0.101734191179276,0.106211281884375
3.264422764,0.0489168167114258,-0.00315403938293457,-0.105055123567581,0.115928348169928
3.269422764,0.123668670654297,-0.0343787670135498,-0.0649352073669434,0.143848604020202
3.274422764,0.168349266052246,-0.0360896587371826,-0.0730655193328857,0.18703611673546
3.279422764,0.240650177001953,-0.0543391704559326,-0.0618910491466522,0.254353602493426
3.284422764,0.293176651000977,-0.0492027997970581,-0.0576968491077423,0.302824025792174
3.289422764,0.330928802490234,-0.0627843141555786,-0.0568168759346008,0.341590251343001
3.294422764,0.367842674255371,-0.063346266746521,-0.074151486158371,0.38055147537956
3.299422764,0.35456657409668,-0.0601464509963989,-0.0502437651157379,0.363124616305648
3.304422764,0.321175575256348,-0.0683846473693848,-0.0445283353328705,0.331380420038055
3.309422764,0.260556221008301,-0.0585145950317383,-0.0389004051685333,0.269864306013468
3.314422764,0.172746658325195,-0.0487270355224609,-0.0150349140167236,0.180116019811729
3.319422764,0.0696439743041992,-0.0513448715209961,-0.00317886471748352,0.0865833943044717
3.324422764,-0.0369863510131836,-0.0260761976242065,-0.00262627005577087,0.0453305144269612
3.329422764,-0.126205444335938,-0.0209853649139404,0.0251959562301636,0.130395689848074
3.334422764,-0.213340759277344,-0.0120275020599365,0.0337601602077484,0.216330045976254
3.339422764,-0.281030654907227,0.00104796886444092,0.0441129803657532,0.284473693464044
3.344422764,-0.323598861694336,0.01104736328125,0.0452536344528198,0.326934487254752
3.349422764,-0.344468116760254,0.0127716064453125,0.0286223590373993,0.345891076543492
3.354422764,-0.36823844909668,0.0183258056640625,0.0323732793331146,0.370112712239319
3.359422764,-0.356442451477051,0.0137041807174683,0.0220568180084229,0.357387085671493
3.364422764,-0.317117691040039,0.00838017463684082,0.0313409864902496,0.318772826212793
3.369422764,-0.260852813720703,-0.00975537300109863,0.0411629676818848,0.264260756898898
3.374422764,-0.185992240905762,-0.0188628435134888,0.0200830698013306,0.188021940834591
3.379422764,-0.118855476379395,-0.00922322273254395,0.0189148485660553,0.12070403306942
3.384422764,-0.0144453048706055,-0.0282857418060303,0.0358804166316986,0.0479182044737323
3.389422764,0.0305757522583008,-0.0555418729782105,0.0262279212474823,0.0686125362674547
3.394422764,0.0864906311035156,-0.049595832824707,0.0283224284648895,0.103646205219533
3.399422764,0.133328437805176,-0.0663657188415527,0.0295078158378601,0.151827507917524
3.404422764,0.155134201049805,-0.0571900606155396,0.012537807226181,0.165814715808372
3.409422764,0.185482978820801,-0.0689792633056641,0.0147009193897247,0.19843938930901
3.414422764,0.187979698181152,-0.0615484714508057,0.00819742679595947,0.197969136666004
3.419422764,0.187265396118164,-0.0523171424865723,-0.0110291540622711,0.194748695042053
3.424422764,0.182594299316406,-0.054985523223877,-0.00243398547172546,0.190709229436673
3.429422764,0.16396427154541,-0.0535337924957275,-0.0146050453186035,0.173099556992937
3.434422764,0.141526222229004,-0.0586134195327759,-0.0344650149345398,0.15701287139014
3.439422764,0.104373931884766,-0.0430911779403687,-0.0187907218933105,0.114472086128654
3.444422764,0.0748615264892578,-0.034538745880127,-0.0388996601104736,0.0911611576933082
3.449422764,0.0500717163085938,-0.0303224325180054,-0.0410519540309906,0.0714974797993597
3.454422764,0.0237274169921875,-0.0219379663467407,-0.0499202609062195,0.0594667733570344
3.459422764,0.00192832946777344,-0.0246113538742065,-0.0495345294475555,0.0553453412822475
3.464422764,-0.00380611419677734,-0.0187968015670776,-0.0589211285114288,0.061963744556727
3.469422764,-0.0181655883789063,-0.0133011341094971,-0.0495109856128693,0.0543897643505506
3.474422764,-0.0161638259887695,-0.0092703104019165,-0.0442868173122406,0.0480471655063114
3.479422764,-0.0281839370727539,-0.0207726955413818,-0.0393697023391724,0.0526859815439641
3.484422764,-0.0262384414672852,-0.0119950771331787,-0.0342116355895996,0.0447523596671574
3.489422764,-0.0342769622802734,-0.0150430202484131,-0.0227721333503723,0.043815210357644
3.494422764,-0.0379638671875,-0.029976487159729,-0.00436112284660339,0.0485681416851695
3.499422764,-0.0419425964355469,-0.0378915071487427,0.014455109834671,0.0583429336774452
3.504422764,-0.0487480163574219,-0.025037407875061,0.0152758955955505,0.0568910702846396
3.509422764,-0.0735845565795898,-0.0388909578323364,0.0315588414669037,0.089012100541806
3.514422764,-0.0875215530395508,-0.0397696495056152,0.054488867521286,0.110501963566294
3.519422764,-0.0949926376342773,-0.036360502243042,0.0698972046375275,0.123415179553505
3.524422764,-0.0997076034545898,-0.0357257127761841,0.0601911246776581,0.121823249956589
3.529422764,-0.0865821838378906,-0.0351547002792358,0.0655366182327271,0.11413753037123
3.534422764,-0.0691967010498047,-0.0531165599822998,0.0941431522369385,0.128345181030051
3.539422764,-0.0572786331176758,-0.0456690788269043,0.0914612114429474,0.117182164902936
3.544422764,-0.0538597106933594,-0.0383733510971069,0.0846630036830902,0.107430008391683
3.549422764,-0.0368061065673828,-0.0380682945251465,0.0635022521018982,0.0826826496353127
3.554422764,-0.0311574935913086,-0.037837028503418,0.0442442893981934,0.0660301997362721
3.559422764,0.000902175903320313,-0.0285689830780029,0.0144362449645996,0.0320219594052219
3.564422764,0.00500202178955078,-0.0282270908355713,-0.021102786064148,0.0355965793116689
3.569422764,0.00100040435791016,-0.0297915935516357,-0.0437114536762238,0.052907759711727
3.574422764,0.0229969024658203,-0.028911828994751,-0.0601347982883453,0.0705758127407978
3.579422764,0.0373306274414063,-0.027247428894043,-0.0524497032165527,0.069906862996486
3.584422764,0.0667886734008789,-0.0446856021881104,-0.0494202971458435,0.0943392585700502
3.589422764,0.0807991027832031,-0.0390905141830444,-0.0585986375808716,0.107193113752702
3.594422764,0.0823593139648438,-0.0335462093353272,-0.0677613019943237,0.111803393533002
3.599422764,0.0891027450561523,-0.0325865745544434,-0.0431929230690002,0.104244005204033
3.604422764,0.0740041732788086,-0.0318350791931152,-0.0382671058177948,0.0891877868184997
3.609422764,0.0654268264770508,-0.0305373668670654,-0.0464797616004944,0.0858694860615263
3.614422764,0.0514640808105469,-0.0332738161087036,-0.0336798429489136,0.0699287514057974
3.619422764,0.034428596496582,-0.0279476642608643,-0.030776709318161,0.0539778290672849
3.624422764,0.0120067596435547,-0.0352164506912231,-0.0194746553897858,0.041995510224027
3.629422764,-0.00208187103271484,-0.0234932899475098,-0.00867924094200134,0.0251316152064274
3.634422764,-0.0159101486206055,-0.016823410987854,-0.00263530015945435,0.0233046088430255
3.639422764,-0.054560661315918,-0.0131906270980835,0.00606271624565125,0.0564589668232273
3.644422764,-0.0928955078125,-0.00327730178833008,0.0141030550003052,0.0940170848255554
3.649422764,-0.0727224349975586,0.00308692455291748,0.0191361904144287,0.0752613807921886
3.654422764,-0.051671028137207,0.00232219696044922,0.0362545251846314,0.0631639006382778
3.659422764,-0.0469903945922852,0.00208210945129395,0.0384477376937866,0.060750809850372
3.664422764,-0.0348377227783203,0.0082087516784668,0.0510829985141754,0.0623740592690349
3.669422764,-0.00233268737792969,-0.00848054885864258,0.0502228438854218,0.0509872061137539
3.674422764,0.00471305847167969,0.00129914283752441,0.0635367333889008,0.0637245414420694
3.679422764,0.0394058227539063,-0.00669729709625244,0.0510006546974182,0.0647976807831348
3.684422764,0.0728702545166016,-0.0268939733505249,0.0390207469463348,0.086925131510645
3.689422764,0.0943937301635742,-0.0185811519622803,0.0247624516487122,0.0993409005097791
3.694422764,0.119648933410645,-0.0227576494216919,0.00419539213180542,0.121866234817709
3.699422764,0.0829677581787109,-0.025515079498291,0.0034978985786438,0.0868729156496525
3.704422764,0.0425634384155273,-0.0196323394775391,-0.0205354988574982,0.0511740340059296
3.709422764,0.00962924957275391,-0.0175048112869263,-0.00915729999542236,0.0219771929220145
3.714422764,-0.0125551223754883,-0.0148162841796875,-0.0293630361557007,0.0352042791012361
3.719422764,-0.0403556823730469,-0.00785970687866211,-0.0390113294124603,0.0566766258217638
3.724422764,-0.0623903274536133,-0.00671136379241943,-0.0432289838790894,0.0761993465256879
3.729422764,-0.0780210494995117,-0.011550784111023,-0.033731609582901,0.0857818527640781
3.734422764,-0.0865039825439453,-0.00357818603515625,-0.041465699672699,0.0959955554211332
3.739422764,-0.0936002731323242,-0.00149750709533691,-0.0261099338531494,0.097185298804717
3.744422764,-0.068751335144043,0.00878262519836426,-0.0105950236320496,0.0701151561021378
3.749422764,-0.0571041107177734,0.00121617317199707,-0.00412502884864807,0.057265822276941
3.754422764,-0.0285100936889648,-0.00217938423156738,0.00607997179031372,0.0292325369195588
3.759422764,0.00521278381347656,-0.00092923641204834,0.0193840563297272,0.0200942338791395
3.764422764,0.0106735229492188,-0.000309228897094727,0.00624227523803711,0.0123687394186194
3.769422764,0.0211420059204102,-0.0038524866104126,-0.0030096173286438,0.0216998586144458
3.774422764,0.0360927581787109,0.00997865200042725,0.0258185267448425,0.045484689863367
3.779422764,0.050816535949707,0.00680887699127197,0.0397934913635254,0.0649014875539006
3.784422764,0.0419445037841797,-0.00406897068023682,0.0319353044033051,0.05287496181965
3.789422764,0.0380287170410156,0.00549161434173584,0.0291501879692078,0.0482293956680377
3.794422764,0.0240678787231445,0.0267019271850586,0.0340406596660614,0.049507799508045
3.799422764,0.0214481353759766,0.0076824426651001,0.0316884219646454,0.0390281760144922
3.804422764,0.00744056701660156,0.00493264198303223,0.0427409112453461,0.0436632395562201
3.809422764,-0.00268268585205078,0.0148640871047974,0.0255958735942841,0.0297201385241449
3.814422764,-0.00417709350585938,0.0130952596664429,0.0338661372661591,0.0365492707070686
3.819422764,0.00303840637207031,0.0231512784957886,0.0419873297214508,0.048043204164681
3.824422764,-0.00081634521484375,0.00322020053863525,0.00139221549034119,0.00360199597311977
3.829422764,-0.00427341461181641,0.0170100927352905,-0.00791344046592712,0.0192413062788222
3.834422764,0.00377273559570313,0.00939106941223145,-0.00410676002502441,0.0109220509284462
3.839422764,-0.00560665130615234,-0.00409328937530518,-0.0200914442539215,0.0212568974449989
3.844422764,-0.0120458602905273,-0.00113523006439209,-0.0500636100769043,0.0515049177396714
3.849422764,-0.0181951522827148,0.00346255302429199,-0.0645261406898499,0.0671317784090628
3.854422764,-0.0433712005615234,0.00021052360534668,-0.0949676632881165,0.104402885155255
3.859422764,-0.0664186477661133,0.0103969573974609,-0.0907963216304779,0.112975685507231
3.864422764,-0.0519828796386719,0.00935149192810059,-0.102768361568451,0.115546554757266
3.869422764,-0.0750522613525391,0.00912535190582275,-0.104228317737579,0.128762013808191
3.874422764,-0.0724945068359375,0.0117263793945313,-0.0969434976577759,0.121618268501132
3.879422764,-0.0647811889648438,0.0158407688140869,-0.0887841582298279,0.111041249780878
3.884422764,-0.0488195419311523,0.0117878913879395,-0.0493856966495514,0.07043613484074
3.889422764,-0.0289297103881836,0.0161967277526855,-0.0325523018836975,0.0464641204690906
3.894422764,-0.0179281234741211,0.0175530910491943,0.00947454571723938,0.026819687418624
3.899422764,0.0120658874511719,0.0175840854644775,0.0406759083271027,0.0459272818686373
3.904422764,0.0274581909179688,0.0149073600769043,0.060869425535202,0.0684197968276405
3.909422764,0.0521755218505859,0.014528751373291,0.0613901913166046,0.0818665089443613
3.914422764,0.0508136749267578,0.0191322565078735,0.105513960123062,0.118664521148895
3.919422764,0.054966926574707,0.0253924131393433,0.0813430845737457,0.101404314849418
3.924422764,0.0508909225463867,0.0306898355484009,0.0793460607528687,0.099133996997035
3.929422764,0.0552139282226563,0.0221807956695557,0.0638893842697144,0.0873064659041611
3.934422764,0.0597648620605469,0.017737865447998,0.0425668060779572,0.0754877711119218
3.939422764,0.0452146530151367,0.0303122997283936,0.045249879360199,0.0707866650169065
3.944422764,0.0382881164550781,0.0311959981918335,0.0327155292034149,0.0592408306484809
3.949422764,0.0335178375244141,0.0253806114196777,0.0372889339923859,0.0561968457000765
3.954422764,0.0351362228393555,0.021581768989563,0.0185561180114746,0.0452178772587953
3.959422764,0.0321416854858398,0.0241835117340088,0.0309850871562958,0.0507740663305869
3.964422764,0.0207223892211914,0.0189995765686035,0.0301874577999115,0.0412514718918273
3.969422764,0.0224590301513672,0.0165500640869141,0.0183685719966888,0.0334023516210839
3.974422764,0.00672435760498047,0.0177700519561768,0.0176555514335632,0.0259366579988262
3.979422764,-0.00947189331054688,0.0282813310623169,0.00660669803619385,0.0305483045107941
3.984422764,-0.0201272964477539,0.0149866342544556,-0.00678899884223938,0.0259961107447348
3.989422764,-0.0333337783813477,0.0180345773696899,-0.00824558734893799,0.0387862923313005
3.994422764,-0.0292844772338867,0.0108621120452881,-0.0163445174694061,0.0352520827222186
3.999422764,-0.0157060623168945,0.00630772113800049,-0.0413092374801636,0.0446421419809747
4.004422764,-0.014195442199707,0.0146588087081909,-0.0528407394886017,0.0566439317287459
4.009422764,-0.00983715057373047,0.00873112678527832,-0.0676849484443665,0.0689511011679103
4.014422764,-0.0182590484619141,0.0113059282302856,-0.0781950056552887,0.081090540590833
4.019422764,-0.0285358428955078,0.00606274604797363,-0.0877992510795593,0.0925189694577865
4.024422764,-0.024510383605957,0.00613915920257568,-0.0910249352455139,0.0944668567100427
4.029422764,-0.018707275390625,0.00621652603149414,-0.0661984384059906,0.0690712718561969
4.034422764,-0.0117111206054688,0.0205713510513306,-0.0442036092281342,0.0501426953673863
4.039422764,-0.00486660003662109,0.0205940008163452,-0.0426895618438721,0.0476465670952467
4.044422764,-0.00688076019287109,0.0228782892227173,0.00436031818389893,0.024285249705427
4.049422764,0.0118932723999023,0.022381067276001,0.020470917224884,0.0325794498544591
4.054422764,-0.0001220703125,0.0245022773742676,0.0490497350692749,0.0548293079297267
4.059422764,0.0149679183959961,0.0159952640533447,0.0809357166290283,0.0838479414148004
4.064422764,0.0287723541259766,0.0131720304489136,0.0866804420948029,0.0922759437223385
4.069422764,0.021489143371582,0.0205510854721069,0.10775238275528,0.111779722608202
4.074422764,0.0195608139038086,0.0153108835220337,0.112217724323273,0.114934182239657
4.079422764,0.0210886001586914,0.0198749303817749,0.0874296128749847,0.0921068896543752
4.084422764,0.0271987915039063,0.0116183757781982,0.0830323696136475,0.0881426986122716
4.089422764,0.0332441329956055,0.0144224166870117,0.0820632874965668,0.0897082027267711
4.094422764,0.0123453140258789,0.00763511657714844,0.0443089008331299,0.0466259635459081
4.099422764,0.00106716156005859,-0.00228202342987061,0.0199516713619232,0.0201100883852839
4.104422764,0.00934314727783203,-0.00576388835906982,0.01374351978302,0.0175898023325262
4.109422764,0.0262899398803711,-0.00925648212432861,0.0139232277870178,0.0311560535408567
4.114422764,0.0274925231933594,0.00124990940093994,0.00154784321784973,0.0275644140818376
4.119422764,0.0218877792358398,-0.00149750709533691,-0.00861755013465881,0.0235707356206972
4.124422764,-0.00151920318603516,-0.00142645835876465,-0.0179864466190338,0.0181067673467436
4.129422764,-0.00846481323242188,0.00389683246612549,-0.0446948409080505,0.0456559653290212
4.134422764,-0.0179758071899414,0.0105488300323486,-0.0482140481472015,0.0525262020131096
4.139422764,-0.0156402587890625,0.0051884651184082,-0.0585088729858398,0.0607850810918841
4.144422764,-0.0196828842163086,0.0164241790771484,-0.0484593510627747,0.0548222427018094
4.149422764,-0.0343647003173828,0.0137516260147095,-0.0454641878604889,0.0586262076529413
4.154422764,-0.03204345703125,0.0183308124542236,-0.0458758175373077,0.0588845689333109
4.159422764,-0.0243282318115234,0.0127794742584229,-0.0376614034175873,0.0466214449881079
4.164422764,-0.0135736465454102,0.00395071506500244,-0.0379839539527893,0.0405294064594114
4.169422764,0.00188159942626953,0.00733280181884766,-0.0236032903194428,0.0247876120838481
4.174422764,0.00023651123046875,0.0212305784225464,-0.0245425999164581,0.0324520046896546
4.179422764,0.0133800506591797,0.00472104549407959,-0.0246195495128632,0.0284154226506611
4.184422764,0.00556564331054688,0.021217942237854,-0.0112406313419342,0.0246481084717351
4.189422764,0.0169029235839844,0.0154166221618652,-0.0194563567638397,0.0300321641426245
4.194422764,0.0198659896850586,0.00694739818572998,-0.00139537453651428,0.0210919642948468
4.199422764,0.00308895111083984,-0.00781369209289551,0.00726068019866943,0.0111046332688246
4.204422764,-0.000501632690429688,-0.00275301933288574,-0.00282362103462219,0.00397537250462284
4.209422764,0.00943946838378906,-0.00329887866973877,0.0154811143875122,0.0184296246984427
4.214422764,0.0149412155151367,-0.0187891721725464,0.0372059643268585,0.0442781740080914
4.219422764,0.0203866958618164,-0.0216963291168213,0.0603216588497162,0.0672684962793816
4.224422764,0.0172739028930664,-0.0217651128768921,0.0482164919376373,0.0556501388540513
4.229422764,0.00238132476806641,-0.0217826366424561,0.0547566711902618,0.0589783604942247
4.234422764,0.00351047515869141,-0.0205197334289551,0.0398547053337097,0.0449642128038732
4.239422764,-0.00150299072265625,-0.0124001502990723,0.0440260767936707,0.0457637208539052
4.244422764,-0.0057525634765625,-0.019741415977478,0.0498556792736054,0.0539296230951071
4.249422764,-0.00360488891601563,-0.00589942932128906,0.0451349020004272,0.0456613388875301
4.254422764,-0.003936767578125,-0.00292110443115234,0.0264235436916351,0.0268744237386707
4.259422764,-0.00575447082519531,0.0101451873779297,0.0106341540813446,0.0157836622631475
4.264422764,-0.00120162963867188,0.00388264656066895,-0.00501790642738342,0.00645741767408497
4.269422764,-0.00765132904052734,0.00814998149871826,-0.0198657810688019,0.0227950497255311
4.274422764,-0.0186023712158203,0.0122919082641602,-0.0282565951347351,0.0359940882956361
4.279422764,-0.0174026489257813,0.0154283046722412,-0.0325644016265869,0.0400165594222086
4.284422764,-0.00764942169189453,0.00470757484436035,-0.0217370092868805,0.0235196191694
4.289422764,-0.00848960876464844,0.00679159164428711,-0.0255163013935089,0.0277359119346008
4.294422764,-0.0102386474609375,0.00762081146240234,-0.0367718040943146,0.0389239289579751
4.299422764,0.00380325317382813,0.00617492198944092,-0.0473397970199585,0.0478920742730025
4.304422764,-0.0228853225708008,-0.000322103500366211,-0.0520236194133759,0.0568357169102522
4.309422764,-0.0171241760253906,0.012271523475647,-0.0431204736232758,0.0479916965573998
4.314422764,-0.00512027740478516,0.00931990146636963,-0.0470556914806366,0.0482422626414397
4.319422764,0.0116176605224609,0.00288772583007813,-0.042610764503479,0.0442604366003748
4.324422764,0.00447177886962891,0.00762450695037842,-0.0224117338657379,0.0240918186811185
4.329422764,0.0139398574829102,0.0131145715713501,-0.0229433476924896,0.0298782331720331
4.334422764,0.0106143951416016,0.0104537010192871,-0.000211149454116821,0.0148993232502243
4.339422764,-0.00297069549560547,0.00763678550720215,-0.00371187925338745,0.00899575300919004
4.344422764,-0.0066070556640625,0.000554084777832031,0.00593605637550354,0.00889926737334045
4.349422764,0.00308990478515625,0.00112330913543701,0.0311858654022217,0.0313586915524321
4.354422764,0.0137538909912109,0.00696682929992676,0.0379781424999237,0.0409883585379671
4.359422764,0.00255680084228516,-0.00149834156036377,0.0321626663208008,0.0322989065270296
4.364422764,-0.00510311126708984,-0.00465273857116699,0.0520856380462647,0.0525414447032285
4.369422764,0.00255680084228516,-0.0192875862121582,0.0490600764751434,0.0527772613554878
4.374422764,0.0225486755371094,-0.0113538503646851,0.0404945313930512,0.0477195951295094
4.379422764,0.00723171234130859,-0.00702881813049316,0.0385222434997559,0.0398204117501749
4.384422764,-0.010462760925293,-0.0026400089263916,0.0100860297679901,0.0147704776426508
4.389422764,-0.0163955688476563,-0.00763487815856934,0.0223521292209625,0.0287528037423317
4.394422764,0.00403690338134766,0.00730133056640625,0.0246081948280334,0.0259840195051637
4.399422764,0.0185718536376953,0.00989294052124023,0.00774836540222168,0.0224236746788549
4.404422764,0.00807285308837891,0.0120079517364502,-0.00068819522857666,0.0144856989670537
4.409422764,-0.0214242935180664,0.0162484645843506,-0.0110966265201569,0.0290886244814877
4.414422764,-0.0198040008544922,0.0166418552398682,-0.0150130987167358,0.0299089105242553
4.419422764,-0.0151309967041016,0.0142682790756226,-0.000834733247756958,0.0208141208950628
4.424422764,0.0216798782348633,0.00883543491363525,0.00567704439163208,0.0240896422434237
4.429422764,0.0190610885620117,0.0143440961837769,-0.00172129273414612,0.023917379479678
4.434422764,-0.00887298583984375,0.00568199157714844,-0.0239535272121429,0.0261684231832896
4.439422764,-0.0191650390625,-0.00665593147277832,-0.0314252376556397,0.0374051561653057
4.444422764,-0.0125923156738281,0.011560320854187,-0.0171736180782318,0.0242309840942967
4.449422764,0.0128355026245117,0.0102279186248779,-0.0146147310733795,0.0219761418672199
4.454422764,0.0131616592407227,0.00663435459136963,-0.015812486410141,0.021616629276643
4.459422764,-0.00617504119873047,0.00380098819732666,-0.0213689804077148,0.0225657255311576
4.464422764,-0.0208415985107422,0.00557732582092285,-0.0253365337848663,0.0332779016169496
4.469422764,-0.00612735748291016,0.0155428647994995,-0.0191263854503632,0.0253957432711618
4.474422764,0.016169548034668,-0.00721073150634766,-0.0133833587169647,0.0221937654094348
4.479422764,0.029022216796875,-0.00556230545043945,-0.00301268696784973,0.0297036124485735
4.484422764,0.00789642333984375,-0.0059281587600708,0.00723913311958313,0.0122434315520478
4.489422764,-0.0140237808227539,-0.00977182388305664,0.0057007372379303,0.0180181401821065
4.494422764,-0.0230541229248047,-0.00947487354278565,0.0088350772857666,0.0264447424477769
4.499422764,-0.00107955932617188,0.006156325340271,0.0283508002758026,0.0290315977223514
4.504422764,0.019495964050293,0.000611186027526856,0.037200540304184,0.0420041231492073
4.509422764,0.0149345397949219,-0.00624752044677734,0.0308623909950256,0.0348505260871173
4.514422764,-0.0118045806884766,-0.000663518905639648,0.0180008709430695,0.0215364745786755
4.519422764,-0.0131740570068359,0.0017702579498291,0.0167579352855682,0.0213896700830936
4.524422764,-0.00966644287109375,-0.0137249231338501,0.0102620720863342,0.0196754607650071
4.529422764,0.0183343887329102,0.0106961727142334,0.00762617588043213,0.0225547440575472
4.534422764,-0.00026702880859375,0.00164926052093506,0.0132412612438202,0.0133462490602277
4.539422764,-0.00789737701416016,0.00624299049377441,0.0113858580589294,0.0151980675662148
4.544422764,-0.0216140747070313,0.00422334671020508,0.00346007943153381,0.0222929816881514
4.549422764,-0.000194549560546875,0.0109986066818237,-0.00691336393356323,0.0129923746617337
4.554422764,0.0291633605957031,0.000832319259643555,-0.00641924142837524,0.0298730818145827
4.559422764,0.0186386108398438,0.0158536434173584,-0.0137883722782135,0.0280865632238353
4.564422764,0.00819110870361328,0.0102787017822266,-0.00311696529388428,0.013507829017486
4.569422764,0.000943183898925781,0.00800919532775879,-0.022320568561554,0.0237327745233552
4.574422764,0.00199317932128906,0.0111535787582397,-0.0144491195678711,0.0183617030585321
4.579422764,0.0153961181640625,0.0143872499465942,0.00583770871162415,0.021865778251627
4.584422764,0.0182828903198242,0.00371074676513672,-0.000207304954528809,0.0186568136439711
4.589422764,0.0131750106811523,0.0157036781311035,0.00258162617683411,0.0206603777073579
4.594422764,0.00197982788085938,0.00640654563903809,0.00514644384384155,0.00845277644923375
4.599422764,-0.00740718841552734,0.00634956359863281,0.00929063558578491,0.0134721678917707
4.604422764,-0.00529193878173828,0.00369203090667725,0.0148293375968933,0.0161723517723354
4.609422764,0.0192337036132813,-0.0153460502624512,0.00770244002342224,0.0257830214609468
4.614422764,0.00675010681152344,-0.0181745290756226,0.0100017189979553,0.0218154035489075
4.619422764,-0.0103082656860352,-0.0210402011871338,0.0137571394443512,0.027170007234822
4.624422764,-0.00569057464599609,0.0010993480682373,0.00414431095123291,0.00712506275321837
4.629422764,0.00348854064941406,-0.0140230655670166,0.00381132960319519,0.0149446484436287
4.634422764,0.0180397033691406,-0.0108410120010376,-0.00168246030807495,0.0211137185626188
4.639422764,0.0075531005859375,-0.0094984769821167,-0.0128921270370483,0.0177052911012636
4.644422764,0.0120754241943359,0.000312328338623047,-0.00688451528549194,0.0139035955486497
4.649422764,0.00284194946289063,0.00510263442993164,-0.00161275267601013,0.00605925127958281
4.654422764,-0.00605106353759766,-0.00929439067840576,-0.0101812183856964,0.0150551743874364
4.659422764,-0.0117893218994141,-0.00888586044311523,-0.015461802482605,0.021377884897099
4.664422764,-0.0228862762451172,-0.00034487247467041,-0.0232803225517273,0.0326477257324927
4.669422764,-0.0211629867553711,-0.00172710418701172,-0.0189714729785919,0.0284740528246024
4.674422764,-0.0197954177856445,0.00153326988220215,-0.00398087501525879,0.0202498604372226
4.679422764,-0.0278902053833008,-0.00232172012329102,-0.00488245487213135,0.0284093700428572
4.684422764,-0.00733280181884766,0.00459492206573486,0.0197044312953949,0.0215208713573501
4.689422764,0.00779342651367188,0.00770330429077148,0.0228120982646942,0.0253075131346066
4.694422764,0.00242996215820313,0.00515568256378174,0.0172420740127563,0.0181597052577995
4.699422764,-0.0102453231811523,0.0180563926696777,0.00605818629264832,0.0216264094219147
4.704422764,-0.0145444869995117,0.0168486833572388,-0.0286338925361633,0.0362673411587341
4.709422764,-0.0208168029785156,0.0253995656967163,-0.00905948877334595,0.034066868958895
4.714422764,0.00473976135253906,0.0169118642807007,0.0106439888477325,0.0205370638047048
4.719422764,0.00469684600830078,0.0106499195098877,0.00260403752326965,0.0119273701801937
4.724422764,0.0134668350219727,0.00684380531311035,-0.0000429451465606689,0.0151061299133299
4.729422764,0.0037994384765625,0.00503504276275635,0.0013711154460907,0.00645502485870327
4.734422764,0.00887393951416016,-0.0123533010482788,-0.00357252359390259,0.0156241407481938
4.739422764,0.00794506072998047,-0.00776863098144531,-0.00147312879562378,0.0112091804239849
4.744422764,0.00530147552490234,-0.00652062892913818,0.0150456726551056,0.0172335866846471
4.749422764,0.00960922241210938,-0.0153939723968506,0.00832805037498474,0.0199666713442343
4.754422764,0.00251674652099609,-0.0237267017364502,0.00403741002082825,0.0241989889875114
4.759422764,-0.00732326507568359,-0.0267212390899658,-0.0131532549858093,0.0306702289948015
4.764422764,-0.0518302917480469,-0.0122053623199463,0.00163748860359192,0.053273176937139
4.769422764,-0.0548009872436523,-0.00134110450744629,0.0168334245681763,0.0573437960626197
4.774422764,-0.0361452102661133,-0.00159335136413574,0.0187687873840332,0.0407588318480569
4.779422764,-0.0276060104370117,-0.00630056858062744,0.00365883111953735,0.0285512875690202
4.784422764,-0.0290460586547852,-0.00114309787750244,0.00364062190055847,0.0292956366027024
4.789422764,-0.00349617004394531,-0.00874960422515869,-0.00990003347396851,0.0136670933946759
4.794422764,0.0251884460449219,-0.00981378555297852,0.000305771827697754,0.0270344538958789
4.799422764,0.0748910903930664,-0.030802845954895,0.00490859150886536,0.0811269684493655
4.804422764,0.0504970550537109,-0.0192458629608154,-0.00317645072937012,0.0541335907680261
4.809422764,-0.10828685760498,-0.00844526290893555,-0.0141611695289612,0.109534947473354
4.814422764,-0.341639518737793,0.0319170951843262,-0.0059964656829834,0.343179573006733
4.819422764,-0.508804321289063,0.0500750541687012,0.00279855728149414,0.511270163744453
4.824422764,-0.627297401428223,0.0622576475143433,0.00268074870109558,0.630384986279194
4.829422764,-0.686467170715332,0.0618621110916138,-0.01766437292099,0.689475255052214
4.834422764,-0.735902786254883,0.0733029842376709,-0.0330030620098114,0.740280649765933
4.839422764,-0.7900390625,0.0854649543762207,-0.0524203777313232,0.796375460887579
4.844422764,-0.866555213928223,0.0995326042175293,-0.0603770911693573,0.874339791629424
4.849422764,-0.949485778808594,0.114282131195068,-0.0768744051456451,0.959423433024619
4.854422764,-0.969307899475098,0.12854790687561,-0.0705173313617706,0.98033415852418
4.859422764,-0.933144569396973,0.12854528427124,-0.0741699635982513,0.944872404615354
4.864422764,-0.862939834594727,0.11635959148407,-0.0603593289852142,0.872839023678627
4.869422764,-0.770651817321777,0.102179646492004,-0.0389469265937805,0.778371226851103
4.874422764,-0.698052406311035,0.0901354551315308,-0.0173388719558716,0.704061218012395
4.879422764,-0.609074592590332,0.0730386972427368,0.0172463059425354,0.613680654496016
4.884422764,-0.432796478271484,0.0773441791534424,0.0419655740261078,0.441651472381175
4.889422764,-0.216975212097168,0.0520552396774292,0.0808591842651367,0.237331410315847
4.894422764,-0.0172882080078125,0.018962025642395,0.0957804918289185,0.0991581724699167
4.899422764,0.126263618469238,-0.00918006896972656,0.10741662979126,0.166027429573992
4.904422764,0.23966121673584,-0.0169967412948608,0.115711688995361,0.266675051311717
4.909422764,0.307312965393066,-0.0285439491271973,0.0829906761646271,0.319598917489903
4.914422764,0.406743049621582,-0.0366668701171875,0.0643468201160431,0.413430624214876
4.919422764,0.451227188110352,-0.0528746843338013,0.0337346196174622,0.455565288508803
4.924422764,0.480958938598633,-0.0505821704864502,0.0077851414680481,0.483674131018728
4.929422764,0.467372894287109,-0.0490156412124634,-0.0178138911724091,0.470273633235461
4.934422764,0.374825477600098,-0.0307557582855225,-0.0615258812904358,0.381084622353649
4.939422764,0.258889198303223,-0.0201683044433594,-0.0522037446498871,0.264869040202278
4.944422764,0.200576782226563,-0.00470602512359619,-0.0704666376113892,0.212646982713324
4.949422764,0.243160247802734,-0.0106745958328247,-0.0844807922840118,0.25763900592227
4.954422764,0.314798355102539,-0.01694655418396,-0.0650125443935394,0.321887901298722
4.959422764,0.288914680480957,-0.00778985023498535,-0.0500670373439789,0.293324193670588
4.964422764,0.217264175415039,0.00504887104034424,-0.0631681978702545,0.226317109913799
4.969422764,0.184417724609375,0.00195181369781494,-0.0275135338306427,0.186469035688664
4.974422764,0.318967819213867,0.00310826301574707,-0.0545744299888611,0.32361782923942
4.979422764,0.47334098815918,-0.0203583240509033,-0.0058688223361969,0.473814938035183
4.984422764,0.562825202941895,-0.0324218273162842,0.0176398456096649,0.564034172817786
4.989422764,0.581958770751953,-0.0333058834075928,0.0344834327697754,0.583930132687355
4.994422764,0.547783851623535,-0.0384608507156372,0.0531594753265381,0.551699478841768
4.999422764,0.457226753234863,-0.0241491794586182,0.0426953732967377,0.459850390500179
5.004422764,0.330319404602051,-0.00973832607269287,0.027515709400177,0.331606481111492
5.009422764,0.291445732116699,-0.000524997711181641,0.0399080514907837,0.294165842621856
5.014422764,0.307685852050781,-0.0147759914398193,0.0437099039554596,0.31112613065932
5.019422764,0.27999210357666,-0.00575602054595947,0.0507916510105133,0.284619924900177
5.024422764,0.15720272064209,0.00392341613769531,0.0298811495304108,0.160065523048292
5.029422764,0.0589418411254883,0.0282034873962402,0.014100968837738,0.0668462015280976
5.034422764,-0.0270481109619141,0.0272179841995239,0.0139477252960205,0.04082839712047
5.039422764,-0.0586175918579102,0.0261876583099365,0.0220935046672821,0.0678965276833929
5.044422764,-0.0763082504272461,0.0346517562866211,0.0236242711544037,0.0870735291841986
5.049422764,-0.0554847717285156,0.0358653068542481,0.0196321904659271,0.0689224421506181
5.054422764,-0.032562255859375,0.0351299047470093,0.0129941403865814,0.0496312240285441
5.059422764,-0.0495586395263672,0.0336896181106567,0.0301842987537384,0.0670979955840801
5.064422764,-0.048583984375,0.0267904996871948,0.00627961754798889,0.0558351861086613
5.069422764,-0.0100383758544922,0.0208525657653809,0.00988760590553284,0.0251667089492987
5.074422764,0.0396413803100586,0.0223499536514282,0.0200260579586029,0.0497192363021498
5.079422764,0.0722150802612305,0.00197780132293701,0.0116779208183289,0.0731799381651018
5.084422764,0.0768976211547852,-0.00300109386444092,0.0302994549274445,0.0827061525676795
5.089422764,0.050990104675293,-0.00255513191223145,0.000151634216308594,0.0510543089936765
5.094422764,0.0200967788696289,0.015437126159668,-0.0133237540721893,0.0286305397710286
5.099422764,-0.0151386260986328,0.0127800703048706,-0.0275756120681763,0.0339547136357559
5.104422764,-0.0583095550537109,0.00611782073974609,-0.0184144675731659,0.0614534340551331
5.109422764,-0.0861673355102539,0.01841139793396,-0.0227888226509094,0.0910116460714446
5.114422764,-0.132787704467773,0.018152117729187,-0.0294959247112274,0.137230038294994
5.119422764,-0.175281524658203,0.0277340412139893,-0.0253013968467712,0.179256661273609
5.124422764,-0.194809913635254,0.0313756465911865,-0.0278716683387756,0.199279109656725
5.129422764,-0.192377090454102,0.018441915512085,-0.031855046749115,0.195866774065253
5.134422764,-0.14913272857666,0.0101464986801147,-0.029795914888382,0.152418236153753
5.139422764,-0.0765409469604492,0.00738692283630371,-0.0222125351428986,0.0800404891793292
5.144422764,0.0162019729614258,0.000897526741027832,-0.00671482086181641,0.0175612727699309
5.149422764,0.0915937423706055,-0.015878438949585,0.00789010524749756,0.0932941167799188
5.154422764,0.18168830871582,-0.0449656248092651,0.011001318693161,0.187492874401912
5.159422764,0.266167640686035,-0.0545541048049927,0.0119525194168091,0.271963648342667
5.164422764,0.347060203552246,-0.0645363330841065,0.0194043219089508,0.353542431521897
5.169422764,0.418327331542969,-0.08849036693573,0.0333682000637054,0.428884294573458
5.174422764,0.475111961364746,-0.0911402702331543,0.044961005449295,0.485859461882796
5.179422764,0.494035720825195,-0.107410907745361,0.062499612569809,0.509425753300056
5.184422764,0.484150886535645,-0.10839307308197,0.0482131838798523,0.498473319572107
5.189422764,0.432131767272949,-0.102126836776733,0.0364554226398468,0.44552974414321
5.194422764,0.365020751953125,-0.10032069683075,0.0235001742839813,0.379284391664631
5.199422764,0.272006034851074,-0.0909637212753296,0.0149586498737335,0.287202790358493
5.204422764,0.179917335510254,-0.0737267732620239,0.0275282263755798,0.196376393591807
5.209422764,0.0739498138427734,-0.0583866834640503,-0.00327140092849731,0.0942776847262756
5.214422764,-0.0337991714477539,-0.0348044633865356,-0.0326558947563171,0.058481981195194
5.219422764,-0.127969741821289,-0.0314134359359741,-0.0401549637317658,0.137751515024011
5.224422764,-0.214797019958496,-0.021507740020752,-0.0428999960422516,0.220092599430958
5.229422764,-0.270264625549316,0.00485908985137939,-0.0467457473278046,0.274320512304004
5.234422764,-0.311768531799316,0.0171546936035156,-0.0595258474349976,0.317863535885742
5.239422764,-0.333868026733398,0.00506973266601563,-0.0362449884414673,0.335867921438294
5.244422764,-0.32720947265625,0.00378596782684326,-0.0417680144309998,0.329886252483906
5.249422764,-0.296621322631836,0.0119477510452271,-0.0351634621620178,0.298937162069419
5.254422764,-0.25704288482666,0.0027623176574707,-0.0129731893539429,0.257384884328637
5.259422764,-0.202811241149902,-0.00592339038848877,-0.00658738613128662,0.203004629864693
5.264422764,-0.150738716125488,-0.0043102502822876,0.0122067034244537,0.151293563660683
5.269422764,-0.124444007873535,-0.023095965385437,0.0144086182117462,0.127386588742637
5.274422764,-0.0924844741821289,-0.0308698415756226,0.0230796635150909,0.100194790042291
5.279422764,-0.0971279144287109,-0.0303480625152588,0.0265887379646301,0.105175080918689
5.284422764,-0.108002662658691,-0.0230706930160522,0.0303729772567749,0.114539730072358
5.289422764,-0.159296989440918,-0.00839805603027344,0.0323053300380707,0.162756543766744
5.294422764,-0.196999549865723,-0.00492846965789795,0.0114296972751617,0.197392376854498
5.299422764,-0.267374038696289,0.00503218173980713,0.0320854485034943,0.269339331378649
5.304422764,-0.309957504272461,0.00930023193359375,0.019474059343338,0.310707881709073
5.309422764,-0.343478202819824,0.0322659015655518,0.0147864520549774,0.345307114581424
5.314422764,-0.345961570739746,0.0311951637268066,0.00999128818511963,0.347508809252734
5.319422764,-0.327496528625488,0.0307040214538574,0.00188204646110535,0.328938072126147
5.324422764,-0.282573699951172,0.0391920804977417,0.00120484828948975,0.285281206421378
5.329422764,-0.197567939758301,0.0250232219696045,0.00493988394737244,0.19920756740519
5.334422764,-0.0843219757080078,0.0177412033081055,0.0180451273918152,0.0880373358564889
5.339422764,0.039546012878418,-0.00684559345245361,0.0285564363002777,0.049256667959456
5.344422764,0.174559593200684,-0.0322811603546143,0.0361311733722687,0.181159009109361
5.349422764,0.319079399108887,-0.0529520511627197,0.0524396598339081,0.327666752328526
5.354422764,0.446083068847656,-0.0563862323760986,0.0657645463943481,0.454416644805809
5.359422764,0.595602035522461,-0.080721378326416,0.0839273035526276,0.606878503424722
5.364422764,0.736728668212891,-0.112621784210205,0.0858254432678223,0.750212505599279
5.369422764,0.840693473815918,-0.129255652427673,0.0963974893093109,0.85601694874945
5.374422764,0.926957130432129,-0.137319207191467,0.112007200717926,0.94374344995625
5.379422764,0.983643531799316,-0.152057409286499,0.105066776275635,1.00085717305044
5.384422764,1.02538585662842,-0.155916810035706,0.0978977680206299,1.04178221313705
5.389422764,1.04987907409668,-0.154928803443909,0.104679018259048,1.06639894093456
5.394422764,1.03247165679932,-0.145850658416748,0.106394022703171,1.0481363578855
5.399422764,0.974515914916992,-0.139037013053894,0.104605227708817,0.989926670561746
5.404422764,0.882663726806641,-0.131111025810242,0.0811894237995148,0.896034083194439
5.409422764,0.736414909362793,-0.122242450714111,0.105559706687927,0.75391842208852
5.414422764,0.582133293151856,-0.097341775894165,0.0728094875812531,0.594689678581946
5.419422764,0.426368713378906,-0.0761743783950806,0.065733790397644,0.438079612481912
5.424422764,0.242330551147461,-0.0462697744369507,0.0474587678909302,0.251231611656662
5.429422764,0.0559606552124023,-0.0203006267547607,0.0176380574703217,0.0620871278910842
5.434422764,-0.122485160827637,-0.00647330284118652,0.0191382467746735,0.124140206066584
5.439422764,-0.306765556335449,0.0317002534866333,-0.00313535332679749,0.30841504999821
5.444422764,-0.478256225585938,0.0402414798736572,-0.0174713730812073,0.480264138668995
5.449422764,-0.591174125671387,0.069114089012146,-0.0312533378601074,0.596020448718587
5.454422764,-0.708372116088867,0.0805864334106445,-0.0451899766921997,0.714372005397405
5.459422764,-0.780287742614746,0.0912741422653198,-0.0568002164363861,0.787658679193156
5.464422764,-0.845788955688477,0.0992051362991333,-0.0535761415958405,0.853270777409511
5.469422764,-0.869606018066406,0.0978595018386841,-0.0417479574680328,0.876090178412119
5.474422764,-0.843433380126953,0.0943248271942139,-0.0455507338047028,0.84991288323436
5.479422764,-0.788636207580566,0.0895731449127197,-0.0366933345794678,0.794554477049355
5.484422764,-0.694092750549316,0.0728796720504761,-0.0382208824157715,0.698954239429121
5.489422764,-0.568639755249023,0.0583208799362183,-0.0255119800567627,0.572191713862252
5.494422764,-0.42540454864502,0.0342895984649658,-0.000384420156478882,0.426784435458485
5.499422764,-0.269259452819824,0.0108520984649658,0.00647217035293579,0.269555764106431
5.504422764,-0.119369506835938,-0.0125093460083008,0.0174030959606171,0.12127831895613
5.509422764,0.0243978500366211,-0.0331677198410034,0.0399026572704315,0.0573373768418321
5.514422764,0.159579277038574,-0.0555218458175659,0.0596743524074554,0.179190539254707
5.519422764,0.274500846862793,-0.0682766437530518,0.0661473870277405,0.290495941144053
5.524422764,0.373431205749512,-0.076202392578125,0.0950072407722473,0.392790078618746
5.529422764,0.453778266906738,-0.0836482048034668,0.108015030622482,0.473897651950399
5.534422764,0.517783164978027,-0.0835793018341065,0.132274746894836,0.54090804606313
5.539422764,0.562252998352051,-0.0914397239685059,0.134415000677109,0.585283734339453
5.544422764,0.577225685119629,-0.0836722850799561,0.137978374958038,0.599356800919442
5.549422764,0.591070175170898,-0.0882289409637451,0.141678303480148,0.614183229726401
5.554422764,0.597439765930176,-0.0906919240951538,0.154798567295074,0.623796357353417
5.559422764,0.645994186401367,-0.0960729122161865,0.160784840583801,0.672599627035001
5.564422764,0.681424140930176,-0.0931189060211182,0.155641436576843,0.705148386710699
5.569422764,0.687749862670898,-0.102519989013672,0.161349922418594,0.713823521058034
5.574422764,0.688066482543945,-0.105492353439331,0.151455640792847,0.712392400410433
5.579422764,0.689363479614258,-0.0997779369354248,0.157702535390854,0.714176262132585
5.584422764,0.697216033935547,-0.114119052886963,0.140667319297791,0.720361472406081
5.589422764,0.68978214263916,-0.0947232246398926,0.136734664440155,0.709554974649331
5.594422764,0.635695457458496,-0.11206066608429,0.116112738847733,0.655857054272761
5.599422764,0.573344230651856,-0.0893398523330689,0.112199246883392,0.591010902638744
5.604422764,0.47823429107666,-0.0739371776580811,0.0851240158081055,0.491345948867941
5.609422764,0.347408294677734,-0.0553023815155029,0.067886084318161,0.3582727969805
5.614422764,0.193103790283203,-0.0355250835418701,0.0331818759441376,0.199128456714675
5.619422764,0.0671377182006836,-0.0170233249664307,0.0237063765525818,0.0732069606482874
5.624422764,-0.0746803283691406,-0.00832128524780273,0.00870266556739807,0.0756447725984813
5.629422764,-0.215045928955078,0.0119965076446533,-0.0120081007480621,0.215714770563808
5.634422764,-0.358529090881348,0.0329418182373047,-0.0122528672218323,0.360247699718043
5.639422764,-0.469099998474121,0.0458709001541138,-0.0212331712245941,0.471815425362103
5.644422764,-0.545862197875977,0.043866753578186,-0.042658269405365,0.54928094731944
5.649422764,-0.567920684814453,0.0639133453369141,-0.0280659794807434,0.572194476691698
5.654422764,-0.555594444274902,0.0625954866409302,-0.0261895954608917,0.559722499429278
5.659422764,-0.518202781677246,0.0516127347946167,-0.0309907197952271,0.521688050509537
5.664422764,-0.471582412719727,0.0356845855712891,-0.0406679511070251,0.47467593564578
5.669422764,-0.42294979095459,0.0103557109832764,-0.0220806002616882,0.423652356686962
5.674422764,-0.361261367797852,0.0200022459030151,-0.00279098749160767,0.361825448684193
5.679422764,-0.313309669494629,-0.00356221199035645,0.0096639096736908,0.313478913969152
5.684422764,-0.274989128112793,-0.0160708427429199,0.0247423350811005,0.276567307742559
5.689422764,-0.261861801147461,-0.0204071998596191,0.044952780008316,0.266474781427397
5.694422764,-0.267138481140137,-0.0157287120819092,0.0719513595104218,0.277105320455982
5.699422764,-0.302907943725586,-0.00758183002471924,0.0734217464923859,0.311771485829892
5.704422764,-0.335971832275391,0.00775754451751709,0.0892570912837982,0.347712639867849
5.709422764,-0.404273986816406,0.0126775503158569,0.102541446685791,0.417268408805241
5.714422764,-0.432339668273926,0.0132735967636108,0.102070391178131,0.444423381348808
5.719422764,-0.46367073059082,0.0216206312179565,0.104805916547775,0.475859515239852
5.724422764,-0.472723960876465,0.0257567167282105,0.125352650880814,0.489739357950939
5.729422764,-0.465780258178711,0.0332801342010498,0.143060028553009,0.488390200568208
5.734422764,-0.433618545532227,0.0300015211105347,0.152713775634766,0.460702324247507
5.739422764,-0.3857421875,0.018416166305542,0.155091285705566,0.416160422554193
5.744422764,-0.300426483154297,0.0122494697570801,0.160553485155106,0.340857071050667
5.749422764,-0.201248168945313,-0.000427126884460449,0.171057224273682,0.264124178971621
5.754422764,-0.0808963775634766,-0.016143798828125,0.173545002937317,0.192152840697214
5.759422764,0.0853672027587891,-0.0490266084671021,0.182537972927094,0.207391608328252
5.764422764,0.0587501525878906,-0.0512409210205078,0.173572391271591,0.190275031015288
5.769422764,0.0050201416015625,-0.042068362236023,0.162371098995209,0.167807397667185
5.774422764,-0.107634544372559,-0.02211594581604,0.147228002548218,0.183712805585142
5.779422764,0.00237751007080078,-0.0289691686630249,0.119616508483887,0.123097418287466
5.784422764,0.245718955993652,-0.0349173545837402,0.109799265861511,0.271390688435443
5.789422764,0.333403587341309,-0.0421761274337769,0.0917661190032959,0.348364461985276
5.794422764,0.0907659530639648,-0.0144494771957397,0.0906887352466583,0.129118907707115
5.799422764,-0.140561103820801,0.00508499145507813,0.070244312286377,0.157218142890718
5.804422764,-0.0955991744995117,0.00819218158721924,0.0313500165939331,0.100941257890844
5.809422764,0.122621536254883,-0.00129377841949463,0.0565959513187408,0.135058567746662
5.814422764,0.279473304748535,-0.0117464065551758,0.0374307334423065,0.282213334093299
5.819422764,0.397032737731934,-0.0502430200576782,0.0384081304073334,0.402037983748821
5.824422764,0.466976165771484,-0.0569583177566528,0.0261785089969635,0.471164837072557
5.829422764,0.563024520874023,-0.0762503147125244,0.041282445192337,0.569662147136565
5.834422764,0.702654838562012,-0.099298357963562,0.0483652949333191,0.7112827762591
5.839422764,0.904083251953125,-0.129605650901794,0.0318711996078491,0.913881789167647
5.844422764,1.08375263214111,-0.167136788368225,0.033913791179657,1.09708915723883
5.849422764,1.14854145050049,-0.176937580108643,0.0311130583286285,1.16250694327863
5.854422764,1.05528831481934,-0.167733550071716,0.0456363558769226,1.06950953627895
5.859422764,0.954562187194824,-0.157346963882446,0.0450324416160584,0.968491072268141
5.864422764,0.866730690002441,-0.140297174453735,0.0425163209438324,0.879040968157008
5.869422764,0.709779739379883,-0.116134643554688,0.0312411785125732,0.719896204395191
5.874422764,0.470732688903809,-0.0683019161224365,0.0303420424461365,0.476628844792685
5.879422764,0.243906021118164,-0.0494499206542969,0.0269163846969605,0.250319662742593
5.884422764,0.0197896957397461,0.00174891948699951,0.00881674885749817,0.0217353591472496
5.889422764,-0.173099517822266,0.0303658246994019,-0.00243750214576721,0.175759687632535
5.894422764,-0.362287521362305,0.0556855201721191,-0.00356170535087585,0.366559423609172
5.899422764,-0.501659393310547,0.0757538080215454,-0.00500378012657166,0.507371485345823
5.904422764,-0.598215103149414,0.0752934217453003,-0.00246110558509827,0.602939852750572
5.909422764,-0.608719825744629,0.095505952835083,-0.0110617578029633,0.616265832062106
5.914422764,-0.566258430480957,0.0763430595397949,-0.0221147537231445,0.571809352112126
5.919422764,-0.470878601074219,0.0617505311965942,-0.015279084444046,0.475156011720491
5.924422764,-0.330348968505859,0.0406928062438965,0.00945910811424255,0.332980209921259
5.929422764,-0.241596221923828,0.0139505863189697,0.0126539468765259,0.24232927119534
5.934422764,-0.194944381713867,0.00714385509490967,0.00917088985443115,0.195290685513009
5.939422764,-0.273802757263184,-0.00538945198059082,-0.000190705060958862,0.273855860711421
5.944422764,-0.203799247741699,-0.006430983543396,-0.0178440511226654,0.204679996799605
5.949422764,0.00652503967285156,-0.0278826951980591,-0.0292682349681854,0.0409469218915545
5.954422764,0.200008392333984,-0.0314382314682007,-0.0239988565444946,0.203881496260245
5.959422764,0.114764213562012,-0.0250779390335083,-0.0180481970310211,0.118850600153074
5.964422764,-0.146862030029297,0.00644731521606445,-0.0232278108596802,0.14882726542927
5.969422764,-0.292425155639648,0.0295869112014771,-0.0419372618198395,0.29689491557496
5.974422764,-0.16972827911377,0.0147495269775391,-0.023545891046524,0.171987343319669
5.979422764,-0.0723237991333008,0.0209622383117676,-0.0341042876243591,0.0826634731334124
5.984422764,-0.0356245040893555,0.00781011581420898,-0.0360187888145447,0.0512587197295312
5.989422764,-0.0338954925537109,0.00996243953704834,-0.0265332758426666,0.0441833604870776
5.994422764,-0.0306301116943359,0.0047914981842041,-0.0137740671634674,0.0339247273162282
5.999422764,0.0469207763671875,0.00106310844421387,-0.0158028602600098,0.0495219127948545
6.004422764,0.162593841552734,-0.0178942680358887,-0.0129749774932861,0.164089342068177
6.009422764,0.358706474304199,-0.0610365867614746,-0.0111618936061859,0.364033497771999
6.014422764,0.461429595947266,-0.0755265951156616,0.00525513291358948,0.467599353087407
6.019422764,0.465109825134277,-0.0715655088424683,0.019743949174881,0.470997446937178
6.024422764,0.428276062011719,-0.0831739902496338,0.0433659255504608,0.438427760805768
6.029422764,0.486823081970215,-0.0635720491409302,0.0405429899692535,0.492627498833147
6.034422764,0.441303253173828,-0.0657107830047607,0.0445503294467926,0.448387332692083
6.039422764,0.229255676269531,-0.0501161813735962,0.0501625537872314,0.239970995205104
6.044422764,-0.0999164581298828,0.00605118274688721,0.042657345533371,0.108809763099688
6.049422764,-0.360576629638672,0.0506731271743774,0.0247663259506226,0.364961152124863
6.054422764,-0.510625839233398,0.0859781503677368,-0.00339198112487793,0.517824773035649
6.059422764,-0.704370498657227,0.121037364006042,-0.00225001573562622,0.714697772093192
6.064422764,-0.910313606262207,0.160355567932129,-0.0299597382545471,0.924814768388363
6.069422764,-1.0983190536499,0.183226585388184,-0.0589266121387482,1.11505563575168
6.074422764,-1.23488426208496,0.191835403442383,-0.0750806331634522,1.25194930577689
6.079422764,-1.35693836212158,0.207955956459045,-0.0742469727993012,1.37478726041299
6.084422764,-1.39809799194336,0.21415913105011,-0.082015335559845,1.41678108533224
6.089422764,-1.31009578704834,0.20593786239624,-0.102675259113312,1.33015171437101
6.094422764,-1.16163921356201,0.188220024108887,-0.117703586816788,1.18266080272835
6.099422764,-1.07033443450928,0.161173105239868,-0.124658644199371,1.08955603303482
6.104422764,-0.993978500366211,0.136848926544189,-0.140173971652985,1.0130990229072
6.109422764,-0.892796516418457,0.122808814048767,-0.163193479180336,0.915860107322062
6.114422764,-0.783547401428223,0.099722146987915,-0.184595882892609,0.811151451250444
6.119422764,-0.715670585632324,0.0946474075317383,-0.192091941833496,0.747021976255823
6.124422764,-0.676941871643066,0.0823768377304077,-0.194076359272003,0.709014720726132
6.129422764,-0.647025108337402,0.0665749311447144,-0.205456122756004,0.682118707157252
6.134422764,-0.650660514831543,0.0795886516571045,-0.204470589756966,0.686659800125947
6.139422764,-0.674151420593262,0.0868532657623291,-0.195432245731354,0.707260482660452
6.144422764,-0.686643600463867,0.10290002822876,-0.203116193413734,0.723411389110199
6.149422764,-0.644394874572754,0.101161479949951,-0.183072984218597,0.677491045661862
6.154422764,-0.640058517456055,0.102341175079346,-0.17071221768856,0.670291938749684
6.159422764,-0.600435256958008,0.0975111722946167,-0.153844207525253,0.627454354283698
6.164422764,-0.518070220947266,0.081365704536438,-0.141471460461617,0.543167843149981
6.169422764,-0.366725921630859,0.0611852407455444,-0.128246575593948,0.393292155315445
6.174422764,-0.184171676635742,0.0443568229675293,-0.101164996623993,0.214758214652026
6.179422764,0.00265598297119141,0.0177114009857178,-0.0765640139579773,0.0786307586366651
6.184422764,0.179440498352051,-0.0278489589691162,-0.0520584881305695,0.188903528688419
6.189422764,0.356825828552246,-0.0473698377609253,-0.011202484369278,0.360130627838757
6.194422764,0.504008293151856,-0.0634301900863648,0.0096459686756134,0.508075578326621
6.199422764,0.642841339111328,-0.0935964584350586,0.0328271985054016,0.650448237190128
6.204422764,0.756874084472656,-0.116366386413574,0.05826735496521,0.767980859323927
6.209422764,0.817741394042969,-0.0977461338043213,0.0576529204845429,0.825578072289609
6.214422764,0.841648101806641,-0.105076789855957,0.0554803609848022,0.849994546744953
6.219422764,0.836563110351563,-0.096436619758606,0.051214337348938,0.843659153676197
6.224422764,0.818633079528809,-0.0870424509048462,0.0531412363052368,0.824960907046141
6.229422764,0.781312942504883,-0.0662691593170166,0.0444702506065369,0.785378328445107
6.234422764,0.760568618774414,-0.0605698823928833,0.0261996984481812,0.763426328283406
6.239422764,0.742935180664063,-0.0567986965179443,0.00733205676078796,0.745139271311628
6.244422764,0.784516334533691,-0.0702459812164307,-0.000663012266159058,0.787655265082703
6.249422764,0.833353042602539,-0.0666193962097168,-0.0163033604621887,0.836170578966168
6.254422764,0.881735801696777,-0.0906842947006226,-0.0334502458572388,0.887017803793767
6.259422764,0.937980651855469,-0.0808439254760742,-0.0559139847755432,0.943117075041625
6.264422764,1.00607109069824,-0.119653582572937,-0.0671850740909576,1.01538655375276
6.269422764,1.06010627746582,-0.114103436470032,-0.0821293294429779,1.06938774094875
6.274422764,1.09019470214844,-0.133660793304443,-0.100063845515251,1.1029063738317
6.279422764,1.08795642852783,-0.12179696559906,-0.121321603655815,1.10145477561169
6.284422764,1.03160953521729,-0.1118004322052,-0.147784188389778,1.04812105032316
6.289422764,0.935704231262207,-0.114594101905823,-0.186124265193939,0.960893573028555
6.294422764,0.796419143676758,-0.08945631980896,-0.189790204167366,0.823593472027598
6.299422764,0.617535591125488,-0.0508707761764526,-0.211506024003029,0.654731120663338
6.304422764,0.440698623657227,-0.0194017887115479,-0.230647847056389,0.497785230446152
6.309422764,0.213625907897949,0.00829184055328369,-0.23224039375782,0.315658650503628
6.314422764,-0.0348272323608398,0.0462090969085693,-0.229670792818069,0.236847819970339
6.319422764,-0.274574279785156,0.0879635810852051,-0.238012075424194,0.37386946219851
6.324422764,-0.455588340759277,0.117875576019287,-0.226943403482437,0.522454491838153
6.329422764,-0.594061851501465,0.133435368537903,-0.204529866576195,0.642298176323015
6.334422764,-0.708989143371582,0.147431969642639,-0.204773530364037,0.752551652598829
6.339422764,-0.777233123779297,0.160262823104858,-0.200627610087395,0.818551732695401
6.344422764,-0.831474304199219,0.162138104438782,-0.174367189407349,0.864894328919085
6.349422764,-0.863128662109375,0.15628182888031,-0.172858119010925,0.89403301208674
6.354422764,-0.826997756958008,0.14772891998291,-0.147022068500519,0.852856736174995
6.359422764,-0.79905891418457,0.141426801681519,-0.146160632371902,0.82453600226251
6.364422764,-0.788338661193848,0.143340110778809,-0.1326043009758,0.812162627020149
6.369422764,-0.807016372680664,0.136249899864197,-0.118403524160385,0.826957589916955
6.374422764,-0.818346977233887,0.128656983375549,-0.114524245262146,0.836277583863157
6.379422764,-0.826820373535156,0.133556246757507,-0.0904991924762726,0.842412787758843
6.384422764,-0.842145919799805,0.140575170516968,-0.120230317115784,0.862221814822088
6.389422764,-0.859615325927734,0.151864171028137,-0.122839719057083,0.881527555774595
6.394422764,-0.866464614868164,0.151102542877197,-0.135909676551819,0.88997997025945
6.399422764,-0.845708847045898,0.144870519638062,-0.149869054555893,0.871017597379859
6.404422764,-0.78974723815918,0.147485971450806,-0.15023148059845,0.817326317768884
6.409422764,-0.732233047485352,0.134883999824524,-0.184732019901276,0.76712766109374
6.414422764,-0.688365936279297,0.144875645637512,-0.17554959654808,0.725020189909738
6.419422764,-0.616282463073731,0.115345358848572,-0.182895883917809,0.653115250514185
6.424422764,-0.510024070739746,0.106622099876404,-0.205057799816132,0.559947788799481
6.429422764,-0.353316307067871,0.0850532054901123,-0.219246655702591,0.424423793679138
6.434422764,-0.187725067138672,0.0597250461578369,-0.231349736452103,0.303859313708223
6.439422764,-0.0346345901489258,0.0408471822738647,-0.216912493109703,0.223425774702843
6.444422764,0.123212814331055,0.00412881374359131,-0.199379935860634,0.234415877325105
6.449422764,0.225846290588379,-0.00988078117370606,-0.20535147190094,0.305406947892506
6.454422764,0.319206237792969,-0.0222716331481934,-0.208010509610176,0.381650389751293
6.459422764,0.414703369140625,-0.0309237241744995,-0.194190934300423,0.458961087738249
6.464422764,0.508848190307617,-0.0370794534683228,-0.18658435344696,0.543244960952301
6.469422764,0.559188842773438,-0.0363501310348511,-0.160833895206451,0.582993169561897
6.474422764,0.565677642822266,-0.0442893505096436,-0.141306594014168,0.584739510952874
6.479422764,0.580442428588867,-0.0418180227279663,-0.120704874396324,0.594333094008782
6.484422764,0.564237594604492,-0.0350555181503296,-0.103388279676437,0.574701739071933
6.489422764,0.558656692504883,-0.0303741693496704,-0.0801237523555756,0.565189973314916
6.494422764,0.542054176330566,-0.0375349521636963,-0.0392400920391083,0.544767278325871
6.499422764,0.525604248046875,-0.0394324064254761,-0.0412351191043854,0.52869185286798
6.504422764,0.512392997741699,-0.024766206741333,-0.0209952890872955,0.513420637776608
6.509422764,0.518470764160156,-0.0234254598617554,0.000937432050704956,0.519000543581026
6.514422764,0.530548095703125,-0.0297222137451172,0.00661313533782959,0.531421137520064
6.519422764,0.516222953796387,-0.02707839012146,0.00998958945274353,0.51702917629015
6.524422764,0.498048782348633,-0.0343788862228394,0.0249912738800049,0.499859041317674
6.529422764,0.505047798156738,-0.0283645391464233,0.0344231724739075,0.507013589864342
6.534422764,0.458927154541016,-0.021325945854187,0.0274467468261719,0.460241516003314
6.539422764,0.400107383728027,-0.0162448883056641,0.0284924805164337,0.40144941942383
6.544422764,0.347461700439453,-0.0097050666809082,0.014389842748642,0.34789493983944
6.549422764,0.30461311340332,0.00153958797454834,0.0103364884853363,0.304792326318434
6.554422764,0.246883392333984,0.00412535667419434,-0.0057443380355835,0.246984666320588
6.559422764,0.162008285522461,0.00543391704559326,-0.0162315964698792,0.162910026567878
6.564422764,0.103366851806641,0.0276871919631958,-0.0464344322681427,0.116650945779653
6.569422764,0.0148630142211914,0.0323729515075684,-0.0614953637123108,0.0710675519429233
6.574422764,-0.0587882995605469,0.0452656745910645,-0.092820018529892,0.118830136334577
6.579422764,-0.100126266479492,0.0475400686264038,-0.0997417569160461,0.149109843527599
6.584422764,-0.149499893188477,0.0441200733184814,-0.125809699296951,0.200311955135442
6.589422764,-0.178289413452148,0.0553324222564697,-0.134685277938843,0.230193214485881
6.594422764,-0.216705322265625,0.0567013025283814,-0.156213462352753,0.273091340446559
6.599422764,-0.240164756774902,0.0677645206451416,-0.160418659448624,0.296656850509654
6.604422764,-0.239650726318359,0.0646326541900635,-0.14987924695015,0.289954546918846
6.609422764,-0.217263221740723,0.0542691946029663,-0.158976584672928,0.274630674685625
6.614422764,-0.175228118896484,0.0550428628921509,-0.157113507390022,0.24170077495068
6.619422764,-0.13917064666748,0.055162787437439,-0.153164729475975,0.214174779951238
6.624422764,-0.0983180999755859,0.0329098701477051,-0.141462787985802,0.17538879303041
6.629422764,-0.0703268051147461,0.0275908708572388,-0.124641984701157,0.145748893726682
6.634422764,-0.0396280288696289,0.0322775840759277,-0.120139002799988,0.130558810884774
6.639422764,-0.0105981826782227,0.0226173400878906,-0.0824154317378998,0.0861171814290081
6.644422764,0.002471923828125,0.0217494964599609,-0.0926710665225983,0.0952212033851166
6.649422764,0.00250053405761719,0.0228856801986694,-0.0611006617546082,0.0652939346002376
6.654422764,0.00111007690429688,0.0223963260650635,-0.0447610914707184,0.0500637893251811
6.659422764,-0.00470542907714844,0.0162546634674072,-0.033661276102066,0.0376754118233399
6.664422764,-0.0162220001220703,0.0132118463516235,-0.0169720947742462,0.0269398992760803
6.669422764,-0.0444526672363281,0.035489559173584,-0.00492608547210693,0.0570947874401643
6.674422764,-0.100836753845215,0.0422942638397217,-0.00253114104270935,0.109376699322856
6.679422764,-0.158150672912598,0.0464211702346802,-0.00351601839065552,0.164860312913654
6.684422764,-0.189399719238281,0.0558948516845703,-0.00956252217292786,0.19770667647474
6.689422764,-0.211808204650879,0.0581915378570557,-0.0154750049114227,0.220200922824148
6.694422764,-0.243282318115234,0.0520702600479126,-0.0136871933937073,0.249168492293821
6.699422764,-0.290567398071289,0.0701122283935547,-0.011619359254837,0.299132323398395
6.704422764,-0.333491325378418,0.0685696601867676,-0.0188080370426178,0.340986810094143
6.709422764,-0.352719306945801,0.0700860023498535,-0.0265237092971802,0.360591825160514
6.714422764,-0.324718475341797,0.0746089220046997,-0.0377654135227203,0.335312996958881
6.719422764,-0.313562393188477,0.0676989555358887,-0.0399068892002106,0.323260085393129
6.724422764,-0.279451370239258,0.0584549903869629,-0.0487379133701324,0.289629830006188
6.729422764,-0.232364654541016,0.0370688438415527,-0.053948700428009,0.241408148457309
6.734422764,-0.219979286193848,0.0534937381744385,-0.0533203482627869,0.232584449000992
6.739422764,-0.193123817443848,0.0429692268371582,-0.0667266249656677,0.208795607708535
6.744422764,-0.132082939147949,0.0323673486709595,-0.0580084621906281,0.147846304518138
