Time (s),Linear Acceleration x (m/s^2),Linear Acceleration y (m/s^2),Linear Acceleration z (m/s^2),Absolute acceleration (m/s^2)
0.01347861,0,0,0,0
0.01847861,0.0554075241088867,-0.00555980205535889,-0.00480747222900391,0.0558929057752796
0.02347861,0.0958051681518555,0.003684401512146,-0.000233173370361328,0.0958762714592545
0.02847861,0.145581245422363,0.0155413150787354,0.04459547996521,0.153049627005198
0.03347861,0.156176567077637,0.0329824686050415,0.0619308948516846,0.17121448267179
0.03847861,0.130527496337891,0.0753895044326782,0.127521276473999,0.197440321698484
0.04347861,0.0822734832763672,0.077252984046936,0.187600374221802,0.218931153568292
0.04847861,0.0231332778930664,0.0940181016921997,0.24777364730835,0.266019420893222
0.05347861,-0.0457897186279297,0.0877362489700317,0.304290533065796,0.31997980597035
0.05847861,-0.103489875793457,0.108970046043396,0.337642908096314,0.369577270288881
0.06347861,-0.122904777526855,0.149198412895203,0.311198949813843,0.366347563271017
0.06847861,-0.102693557739258,0.18100905418396,0.273779392242432,0.343897368577245
0.07347861,-0.0782947540283203,0.188300251960754,0.240514039993286,0.315331661636967
0.07847861,-0.0347223281860352,0.177154421806335,0.237716913223267,0.298493986660693
0.08347861,0.0207977294921875,0.138959288597107,0.243391990661621,0.281037169352509
0.08847861,0.0864648818969727,0.115341424942017,0.276680469512939,0.311980612088336
0.09347861,0.151622772216797,0.0735782384872437,0.288528919219971,0.334143920279626
0.09847861,0.17487621307373,0.0524770021438599,0.315079689025879,0.36415757041377
0.10347861,0.197725296020508,0.0357977151870728,0.329466342926025,0.385907813110931
0.10847861,0.207176208496094,0.0438613891601563,0.345663070678711,0.405374840434025
0.11347861,0.19135856628418,0.0512882471084595,0.328963994979858,0.384012884126176
0.11847861,0.164084434509277,0.0525822639465332,0.290633916854858,0.337870788551436
0.12347861,0.141975402832031,0.0545581579208374,0.237013578414917,0.281618614367155
0.12847861,0.101923942565918,0.0498363971710205,0.164750337600708,0.200037072290902
0.13347861,0.0485115051269531,0.052072286605835,0.0871241092681885,0.112496664740862
0.13847861,-0.00140190124511719,0.0509680509567261,0.0263638496398926,0.0574000009866146
0.14347861,-0.0413274765014648,0.0441255569458008,0.00885248184204102,0.0611014854526459
0.14847861,-0.0740995407104492,0.0279989242553711,-0.0182914733886719,0.0812973535343311
0.15347861,-0.176723480224609,0.029765248298645,-0.00746655464172363,0.179368079398748
0.15847861,-0.246307373046875,0.0624672174453735,0.00461578369140625,0.254147163532678
0.16347861,-0.3116455078125,0.118633508682251,0.0397701263427734,0.335825095654409
0.16847861,-0.334970474243164,0.135830998420715,0.0302121639251709,0.362723108714761
0.17347861,-0.292461395263672,0.159151077270508,0.0332133769989014,0.334613002627824
0.17847861,-0.277863502502441,0.156235456466675,-0.00450825691223145,0.318807101960827
0.18347861,-0.253824234008789,0.150558829307556,-0.0452234745025635,0.298563000887073
0.18847861,-0.23033332824707,0.159539341926575,-0.0881133079528809,0.29371788975501
0.19347861,-0.224757194519043,0.167872309684753,-0.138118267059326,0.312687646929705
0.19847861,-0.20878791809082,0.163281083106995,-0.222110509872437,0.345812355818999
0.20347861,-0.164319038391113,0.159191966056824,-0.274873495101929,0.357628671591593
0.20847861,-0.14936351776123,0.145498037338257,-0.34877872467041,0.40635666364662
0.21347861,-0.136319160461426,0.113718748092651,-0.377078533172607,0.416777023546492
0.21847861,-0.14012336730957,0.0851644277572632,-0.392244577407837,0.425139208174508
0.22347861,-0.180377006530762,0.0417764186859131,-0.388195991516113,0.430089829538432
0.22847861,-0.229925155639648,0.0144741535186768,-0.356885671615601,0.424785193857457
0.23347861,-0.282871246337891,-0.0116521120071411,-0.317629098892212,0.425488141059251
0.23847861,-0.287997245788574,-0.047558069229126,-0.285651206970215,0.408412531117922
0.24347861,-0.286614418029785,-0.0743905305862427,-0.242451429367065,0.382706769296792
0.24847861,-0.270686149597168,-0.101391673088074,-0.197416067123413,0.35003480757464
0.25347861,-0.254367828369141,-0.117220759391785,-0.15029239654541,0.317854531194668
0.25847861,-0.231203079223633,-0.128118634223938,-0.0921556949615479,0.279931992440561
0.26347861,-0.187337875366211,-0.13060200214386,-0.0501556396484375,0.23381178477411
0.26847861,-0.126184463500977,-0.129481196403503,-0.0535120964050293,0.188550904301128
0.27347861,-0.0796146392822266,-0.118107080459595,-0.0502302646636963,0.151032621413101
0.27847861,-0.0170001983642578,-0.110911250114441,-0.070288896560669,0.132404082739501
0.28347861,0.0596504211425781,-0.0934642553329468,-0.096210241317749,0.146799694488268
0.28847861,0.130973815917969,-0.0889096260070801,-0.142709016799927,0.213131240152247
0.29347861,0.216768264770508,-0.0760000944137573,-0.172001123428345,0.286964948074028
0.29847861,0.285365104675293,-0.0821354389190674,-0.203468084335327,0.359970463560355
0.30347861,0.35578441619873,-0.0947562456130981,-0.188547372817993,0.413656147892339
0.30847861,0.407343864440918,-0.120479822158813,-0.189939260482788,0.465318529738317
0.31347861,0.397666931152344,-0.146933317184448,-0.185112237930298,0.462595858674191
0.31847861,0.374244689941406,-0.133067011833191,-0.156904220581055,0.427065395488445
0.32347861,0.243535995483398,-0.127588272094727,-0.103092432022095,0.293626629944285
0.32847861,0.0890617370605469,-0.103677988052368,-0.0708227157592773,0.153938219043707
0.33347861,-0.0817928314208984,-0.0791510343551636,-0.088179349899292,0.143981079520892
0.33847861,-0.233199119567871,-0.0687296390533447,-0.0946879386901856,0.260904960445427
0.34347861,-0.371230125427246,-0.0679752826690674,-0.0698657035827637,0.383814618814582
0.34847861,-0.45333194732666,-0.0170563459396362,-0.0396320819854736,0.455380582948261
0.35347861,-0.438937187194824,0.00257396697998047,-0.00252175331115723,0.438951977838443
0.35847861,-0.383228302001953,0.0357769727706909,0.0461916923522949,0.387656543448326
0.36347861,-0.330496788024902,0.0636501312255859,0.0607943534851074,0.342016694790596
0.36847861,-0.210056304931641,0.0663565397262573,0.0860004425048828,0.236480269191771
0.37347861,-0.0530900955200195,0.0630546808242798,0.0604903697967529,0.102242534467434
0.37847861,-0.0403575897216797,0.0639008283615112,0.0898220539093018,0.117388467414462
0.38347861,-0.0269222259521484,0.108129262924194,0.0190339088439941,0.113044387019567
0.38847861,-0.00531578063964844,0.12597393989563,-0.0163743495941162,0.127144840167688
0.39347861,-0.0324869155883789,0.17662501335144,0.0147366523742676,0.180191464695315
0.39847861,-0.0338249206542969,0.245269775390625,0.0686130523681641,0.256922437581293
0.40347861,-0.0297327041625977,0.318909168243408,0.0923840999603272,0.333349536090877
0.40847861,-0.0323123931884766,0.389391660690308,0.0985219478607178,0.402959713096722
0.41347861,-0.0729837417602539,0.433719873428345,0.0874276161193848,0.448422951272953
0.41847861,-0.136773109436035,0.432595133781433,0.102664232254028,0.465172417304043
0.42347861,-0.196989059448242,0.423763275146484,0.160911917686462,0.494239464388178
0.42847861,-0.255549430847168,0.411368846893311,0.242908239364624,0.541788014404033
0.43347861,-0.259078979492188,0.363171339035034,0.307613372802734,0.541886820506171
0.43847861,-0.232865333557129,0.278986215591431,0.313998222351074,0.480264984880572
0.44347861,-0.124414443969727,0.184212684631348,0.283115267753601,0.359954888677148
0.44847861,0.00677967071533203,0.0937347412109375,0.262026429176331,0.278370284390752
0.45347861,0.105758666992188,0.0404075384140015,0.283978581428528,0.305714735521208
0.45847861,0.203618049621582,-0.0194981098175049,0.296645760536194,0.36033206027531
0.46347861,0.280966758728027,-0.0760437250137329,0.247122406959534,0.381830396440057
0.46847861,0.345429420471191,-0.109111547470093,0.150238871574402,0.392171560481291
0.47347861,0.371309280395508,-0.127578377723694,0.0627316236495972,0.397595373182528
0.47847861,0.423954010009766,-0.0970221757888794,-0.0317620038986206,0.436072390882322
0.48347861,0.453080177307129,-0.0903586149215698,-0.119972705841064,0.477325650375119
0.48847861,0.387638092041016,-0.085773229598999,-0.137614607810974,0.420188193075448
0.49347861,0.29682731628418,-0.0740492343902588,-0.101799845695496,0.322417359008287
0.49847861,0.206070899963379,-0.102274417877197,-0.106005668640137,0.253303126999409
0.50347861,0.190632820129395,-0.156098008155823,-0.121077179908752,0.274530770143089
0.50847861,0.0776948928833008,-0.22610330581665,-0.143401682376862,0.278788887493529
0.51347861,0.00565814971923828,-0.297823309898376,-0.16633129119873,0.341169806707608
0.51847861,-0.0704135894775391,-0.343266844749451,-0.197874486446381,0.402423300361415
0.52347861,-0.11008358001709,-0.353791117668152,-0.217752933502197,0.429770740720063
0.52847861,-0.212454795837402,-0.357694149017334,-0.253318965435028,0.487085867958228
0.53347861,-0.231205940246582,-0.363034129142761,-0.358521163463593,0.560167287851618
0.53847861,-0.344679832458496,-0.357832193374634,-0.47924479842186,0.690306918937748
0.54347861,-0.334259986877441,-0.350669145584106,-0.505717217922211,0.700320278868873
0.54847861,-0.281288146972656,-0.339998602867126,-0.559328436851502,0.712439732082408
0.55347861,-0.219609260559082,-0.306094646453857,-0.591062724590302,0.700911766423656
0.55847861,-0.210655212402344,-0.243662357330322,-0.527564167976379,0.61811885121282
0.56347861,-0.148636817932129,-0.116822004318237,-0.323978871107101,0.375103443414948
0.56847861,-0.132014274597168,-0.0166335105895996,-0.261943727731705,0.293800883031233
0.57347861,-0.314041137695313,0.182124257087708,-0.0436707735061646,0.365647668724063
0.57847861,-0.511044502258301,0.305241823196411,0.0440055429935455,0.596888215439759
0.58347861,-0.439447402954102,0.334152817726135,-0.0566304624080658,0.554958678488743
0.58847861,-0.309039115905762,0.362067699432373,-0.243999868631363,0.534915068047432
0.59347861,-0.18891429901123,0.363188147544861,-0.418833464384079,0.585675433816326
0.59847861,-0.121158599853516,0.347677826881409,-0.524356067180634,0.640709421510707
0.60347861,0.0282278060913086,0.284672498703003,-0.573880553245544,0.64122860973911
0.60847861,0.204569816589355,0.203261256217957,-0.536507666110992,0.609101324850446
0.61347861,0.296651840209961,0.107172727584839,-0.377828061580658,0.492181218613356
0.61847861,0.214920043945313,0.0519344806671143,-0.210864275693893,0.305534872535899
0.62347861,0.0364036560058594,0.0308161973953247,0.0173505619168282,0.0507533860085241
0.62847861,-0.33910083770752,0.0637415647506714,0.31828385591507,0.469421961722042
0.63347861,-0.802689552307129,0.126734972000122,0.48574361205101,0.946741320086566
0.63847861,-1.30972099304199,0.219340085983276,0.921152830123901,1.61616883071643
0.64347861,-1.53371715545654,0.29215145111084,0.868828773498535,1.78675801970688
0.64847861,-1.55283069610596,0.332659840583801,0.6468146443367,1.71473465131914
0.65347861,-1.44490718841553,0.340651869773865,0.485066950321198,1.5617587604394
0.65847861,-1.22899627685547,0.310734868049622,0.374965667724609,1.32196341050673
0.66347861,-0.901998519897461,0.241897344589233,0.296254336833954,0.979735825265902
0.66847861,-0.471344947814941,0.134340167045593,0.211937054991722,0.533976268752715
0.67347861,0.0199909210205078,0.00856459140777588,0.143084287643433,0.144727684012627
0.67847861,0.498902320861816,-0.101756930351257,0.044235110282898,0.511091717422184
0.68347861,0.889840126037598,-0.202838897705078,-0.048419751226902,0.91394941908056
0.68847861,1.15438079833984,-0.281195163726807,-0.13955394923687,1.19630307716176
0.69347861,1.2909460067749,-0.334542274475098,-0.177234575152397,1.34531491497288
0.69847861,1.36376094818115,-0.365748405456543,-0.214649319648743,1.42817721249978
0.70347861,1.39132690429688,-0.383556246757507,-0.245458409190178,1.4639521097663
0.70847861,1.34303951263428,-0.405467391014099,-0.312394469976425,1.43727145750013
0.71347861,1.21046257019043,-0.390758872032166,-0.377971231937408,1.32694174027203
0.71847861,0.947616577148438,-0.362615823745728,-0.430426359176636,1.10214983717794
0.72347861,0.65931510925293,-0.340002536773682,-0.516088843345642,0.903684586859588
0.72847861,0.384722709655762,-0.30670702457428,-0.580612659454346,0.761046531144271
0.73347861,0.180450439453125,-0.269994258880615,-0.55905419588089,0.646529856123711
0.73847861,0.00195026397705078,-0.23028826713562,-0.46496108174324,0.518869248506549
0.74347861,-0.146059036254883,-0.192947030067444,-0.331262677907944,0.410239881360034
0.74847861,-0.266864776611328,-0.169592261314392,-0.219810888171196,0.38509111993417
0.75347861,-0.385781288146973,-0.162905335426331,-0.185680508613586,0.458085801868714
0.75847861,-0.501884460449219,-0.164610385894775,-0.199063912034035,0.564456403860497
0.76347861,-0.540334701538086,-0.15271532535553,-0.213768124580383,0.600816420690474
0.76847861,-0.501091957092285,-0.180591940879822,-0.217960804700851,0.575511521135034
0.77347861,-0.428656578063965,-0.187859892845154,-0.17229700088501,0.498722425574858
0.77847861,-0.373927116394043,-0.20350193977356,-0.130975842475891,0.445409024581491
0.78347861,-0.35145378112793,-0.21653413772583,-0.0940568745136261,0.423383382660514
0.78847861,-0.311113357543945,-0.240216374397278,-0.093876451253891,0.404114112437148
0.79347861,-0.22529125213623,-0.250403761863709,-0.131719201803207,0.361674080310273
0.79847861,-0.136594772338867,-0.258700370788574,-0.199629753828049,0.354169524789895
0.80347861,-0.110746383666992,-0.26059365272522,-0.241043627262115,0.371854600051777
0.80847861,-0.11974048614502,-0.253953814506531,-0.298054993152618,0.40947173634803
0.81347861,-0.167980194091797,-0.241604685783386,-0.35584881901741,0.461755943974403
0.81847861,-0.0670080184936523,-0.225909352302551,-0.432209610939026,0.492270512816143
0.82347861,-0.177962303161621,-0.245859384536743,-0.539915800094605,0.619375887085679
0.82847861,-0.320186614990234,-0.227898001670837,-0.639577150344849,0.750676960368242
0.83347861,-0.448941230773926,-0.223183870315552,-0.666932046413422,0.834360607406073
0.83847861,-0.468711853027344,-0.212435603141785,-0.686284899711609,0.857791728931163
0.84347861,-0.480441093444824,-0.204213500022888,-0.709484100341797,0.880848730770423
0.84847861,-0.452090263366699,-0.208050847053528,-0.719281852245331,0.874664017872083
0.85347861,-0.416677474975586,-0.191603422164917,-0.708332180976868,0.843840309623085
0.85847861,-0.325594902038574,-0.191887855529785,-0.701762795448303,0.797059602795641
0.86347861,-0.213115692138672,-0.184138059616089,-0.671935260295868,0.72857540259317
0.86847861,-0.110386848449707,-0.203375577926636,-0.648736000061035,0.688770847076764
0.87347861,0.0115699768066406,-0.220552682876587,-0.593147397041321,0.63293063198447
0.87847861,0.134354591369629,-0.252981781959534,-0.515730023384094,0.589939314883556
0.88347861,0.275815010070801,-0.260944247245789,-0.466223746538162,0.601273982296846
0.88847861,0.412732124328613,-0.275972008705139,-0.412025809288025,0.645192702656355
0.89347861,0.52573299407959,-0.282439827919006,-0.336966156959534,0.685356570257326
0.89847861,0.617013931274414,-0.300719857215881,-0.287371873855591,0.744124463913075
0.90347861,0.676473617553711,-0.289878010749817,-0.271563112735748,0.784469464390555
0.90847861,0.666601181030273,-0.288522958755493,-0.228188216686249,0.761362262339308
0.91347861,0.648641586303711,-0.307210564613342,-0.207679450511932,0.747157943581932
0.91847861,0.592472076416016,-0.289579272270203,-0.206315577030182,0.69097426405514
0.92347861,0.500994682312012,-0.26117467880249,-0.200821936130524,0.599614321529856
0.92847861,0.36314868927002,-0.247776508331299,-0.23445451259613,0.498235975292905
0.93347861,0.233767509460449,-0.226791858673096,-0.270673274993897,0.423492405404938
0.93847861,0.0674667358398438,-0.202746510505676,-0.311414182186127,0.377672743037892
0.94347861,-0.0720987319946289,-0.192193269729614,-0.343103647232056,0.399820700850434
0.94847861,-0.181697845458984,-0.177315235137939,-0.36090350151062,0.441255183605911
0.95347861,-0.25086784362793,-0.159150242805481,-0.400177240371704,0.498402747246726
0.95847861,-0.250927925109863,-0.138144731521606,-0.434600234031677,0.520505671311568
0.96347861,-0.233076095581055,-0.135096073150635,-0.481813430786133,0.552014127897044
0.96847861,-0.386468887329102,-0.131254553794861,-0.470933675765991,0.623188964709541
0.97347861,-0.522054672241211,-0.133158564567566,-0.4182368516922,0.682051573006012
0.97847861,-0.544289588928223,-0.13621985912323,-0.340452194213867,0.65628858224126
0.98347861,-0.500831604003906,-0.137340426445007,-0.307316601276398,0.603438631283496
0.98847861,-0.41500186920166,-0.14388632774353,-0.268696188926697,0.514905300706957
0.99347861,-0.356180191040039,-0.145169615745544,-0.208057045936584,0.4372942718455
0.99847861,-0.278641700744629,-0.148414850234985,-0.144013345241547,0.346998571714342
1.00347861,-0.207484245300293,-0.14152193069458,-0.0690960884094238,0.260485005996193
1.00847861,-0.177496910095215,-0.145215034484863,0.0177120566368103,0.230013643691183
1.01347861,-0.181021690368652,-0.141270518302917,0.095229983329773,0.248585923677283
1.01847861,-0.152620315551758,-0.135708212852478,0.164261698722839,0.262090796141422
1.02347861,-0.191776275634766,-0.148189306259155,0.222877502441406,0.32926067405694
1.02847861,-0.0524578094482422,-0.146378040313721,0.61664879322052,0.635951324110987
1.03347861,0.721898078918457,-0.343237042427063,3.31308102607727,3.40814530045206
1.03847861,1.22287654876709,-0.507422804832459,6.26086473464966,6.3993227908872
1.04347861,1.04202842712402,-0.567951321601868,7.65078735351563,7.7422825494397
1.04847861,-0.816858291625977,-0.60191422700882,7.56555318832398,7.63329242533212
1.05347861,-2.14233112335205,-0.130801439285278,6.52040910720825,6.86457766974533
1.05847861,-1.90454959869385,0.161736369132996,4.82686519622803,5.19154075872882
1.06347861,-1.21861743927002,0.261253952980042,3.15911793708801,3.3960724714988
1.06847861,-0.667830467224121,0.152652025222778,1.84683907032013,1.96980068164734
1.07347861,-0.23298454284668,0.0553758144378662,0.87814199924469,0.910209673024625
1.07847861,0.0231437683105469,-0.0238311290740967,0.289040833711624,0.290943568887971
1.08347861,0.274326324462891,-0.100309252738953,-0.0431527867913246,0.295260971830386
1.08847861,0.579619407653809,-0.164537072181702,-0.358185231685638,0.700947762710441
1.09347861,0.640303611755371,-0.198801517486572,-0.408956557512283,0.785338286672842
1.09847861,0.629593849182129,-0.209574818611145,-0.435774624347687,0.793857381869836
1.10347861,0.576362609863281,-0.188891530036926,-0.413794219493866,0.734233971057347
1.10847861,0.449098587036133,-0.181861519813538,-0.35355743765831,0.599804980798134
1.11347861,0.274872779846191,-0.13323450088501,-0.306076616048813,0.432422677733653
1.11847861,0.100580215454102,-0.099373459815979,-0.197705805301666,0.243061822807639
1.12347861,-0.0981130599975586,-0.0637859106063843,-0.108410537242889,0.159523225642105
1.12847861,-0.307559967041016,-0.0252647399902344,-0.0321345329284668,0.310264513954747
1.13347861,-0.488822937011719,-0.00536215305328369,0.0126185417175293,0.489015177708429
1.13847861,-0.63980770111084,-0.0068967342376709,0.0862497091293335,0.64563183910707
1.14347861,-0.592350006103516,0.00600194931030273,0.110632359981537,0.602622661539908
1.14847861,-0.43846321105957,0.00589776039123535,0.11054664850235,0.452222658129161
1.15347861,-0.203092575073242,-0.00110733509063721,0.0857304334640503,0.220448468950949
1.15847861,0.0125436782836914,-0.0179100036621094,0.0528623461723328,0.0572061162718207
1.16347861,0.206992149353027,-0.0485228300094605,-0.00353854894638062,0.212632867296095
1.16847861,0.37631893157959,-0.080837607383728,-0.0479959845542908,0.387884353340097
1.17347861,0.488895416259766,-0.0883405208587647,-0.0920403003692627,0.505266456988262
1.17847861,0.611226081848145,-0.103783130645752,-0.167093455791473,0.642096943075113
1.18347861,0.691076278686523,-0.117599248886108,-0.238557666540146,0.740490220439723
1.18847861,0.701023101806641,-0.119201898574829,-0.319917172193527,0.779736801077614
1.19347861,0.62692928314209,-0.104944825172424,-0.394461423158646,0.748099964411087
1.19847861,0.485786437988281,-0.0964586734771729,-0.454958349466324,0.672517537891347
1.20347861,0.329115867614746,-0.0781357288360596,-0.477741748094559,0.585371355900675
1.20847861,0.168798446655273,-0.0457295179367065,-0.515086233615875,0.543965010331129
1.21347861,0.00475692749023438,-0.0174634456634522,-0.517857134342194,0.518173341539968
1.21847861,-0.178581237792969,0.0145875215530396,-0.496983617544174,0.528296101049424
1.22347861,-0.374266624450684,0.0394784212112427,-0.472039073705673,0.60370103447315
1.22847861,-0.573250770568848,0.0792860984802246,-0.414593666791916,0.711892295164065
1.23347861,-0.70171070098877,0.0842465162277222,-0.373373568058014,0.799314208996081
1.23847861,-0.763607025146484,0.0946385860443115,-0.319429188966751,0.833118933637621
1.24347861,-0.748543739318848,0.10414707660675,-0.278708845376968,0.805507891786628
1.24847861,-0.686162948608398,0.088619589805603,-0.226379364728928,0.727956482569774
1.25347861,-0.575687408447266,0.0699847936630249,-0.190107613801956,0.610290724502887
1.25847861,-0.413496971130371,0.0517712831497192,-0.137190759181976,0.438726925658645
1.26347861,-0.226446151733398,0.0410208702087402,-0.0897810161113739,0.2470246997398
1.26847861,-0.019627571105957,0.0125178098678589,-0.0492601096630096,0.0544839014335336
1.27347861,0.142121315002441,-0.0110362768173218,-0.00695708394050598,0.142718844589518
1.27847861,0.261190414428711,-0.0395257472991943,-0.00308823585510254,0.264182237271355
1.28347861,0.335441589355469,-0.0593407154083252,0.0276958346366882,0.341773959848783
1.28847861,0.418706893920898,-0.0819945335388184,0.00898036360740662,0.426754277632523
1.29347861,0.497462272644043,-0.0685490369796753,-0.0067712664604187,0.502208655067289
1.29847861,0.536264419555664,-0.0658556222915649,-0.0360546112060547,0.541494622002844
1.30347861,0.508907318115234,-0.0479446649551392,-0.0828311741352081,0.517828497417357
1.30847861,0.414819717407227,-0.0383120775222778,-0.115014582872391,0.432170761976322
1.31347861,0.313912391662598,-0.0406694412231445,-0.131422311067581,0.342734324127419
1.31847861,0.2147216796875,-0.0218167304992676,-0.136716187000275,0.255485195746041
1.32347861,0.123244285583496,-0.00888347625732422,-0.160019993782043,0.202174351710117
1.32847861,0.047663688659668,0.0127748250961304,-0.175064623355865,0.1818863538686
1.33347861,-0.0189657211303711,0.0309212207794189,-0.18480458855629,0.188330975742027
1.33847861,-0.092860221862793,0.0381451845169067,-0.192440241575241,0.217051428200261
1.34347861,-0.134274482727051,0.0436092615127564,-0.184920579195023,0.232652154537902
1.34847861,-0.169315338134766,0.0535165071487427,-0.172773063182831,0.247754377613535
1.35347861,-0.157530784606934,0.0465699434280396,-0.170725524425507,0.236921743240529
1.35847861,-0.180015563964844,0.0366605520248413,-0.137426614761353,0.229424658197658
1.36347861,-0.163506507873535,0.0299315452575684,-0.115008801221848,0.20213188733347
1.36847861,-0.124105453491211,0.0176812410354614,-0.0897189080715179,0.15415664869333
1.37347861,-0.0699672698974609,0.0221999883651733,-0.0592789649963379,0.0943517569065623
1.37847861,-0.0146808624267578,0.000311732292175293,-0.0546529293060303,0.0565912323628433
1.38347861,0.0382938385009766,-0.00975692272186279,-0.042187362909317,0.0578047506471717
1.38847861,0.0765466690063477,-0.0156658887863159,-0.0170884132385254,0.0799801630058552
1.39347861,0.0847864151000977,-0.0166600942611694,0.0107474327087402,0.0870735449843752
1.39847861,0.0626802444458008,-0.0171184539794922,0.0328300595283508,0.0727988139949298
1.40347861,0.0304298400878906,-0.00586819648742676,0.0677739530801773,0.0745232823613112
1.40847861,0.000453948974609375,0.00763893127441406,0.0579097867012024,0.0584132068668168
1.41347861,-0.0498943328857422,0.0170665979385376,0.0533722341060638,0.0750287184535457
1.41847861,-0.0986566543579102,0.0256763696670532,0.03580242395401,0.108047327451252
1.42347861,-0.152966499328613,0.048637866973877,0.0188066959381104,0.161610902580017
1.42847861,-0.188776969909668,0.0575366020202637,0.0139251351356506,0.197841134066857
1.43347861,-0.226452827453613,0.048037052154541,0.0104984492063522,0.231729710820974
1.43847861,-0.217167854309082,0.0638734102249146,-0.0242307633161545,0.227659437251906
1.44347861,-0.207742691040039,0.0650503635406494,-0.025524690747261,0.219180485707718
1.44847861,-0.16447639465332,0.0501949787139893,-0.0266432762145996,0.174016908528166
1.45347861,-0.0800895690917969,0.0378303527832031,-0.0152365863323212,0.0898756264627601
1.45847861,-0.0149097442626953,0.0509411096572876,-0.0182550549507141,0.0561297083401327
1.46347861,0.0590105056762695,0.0259883403778076,-0.0277365446090698,0.0701922326373278
1.46847861,0.123553276062012,0.0122566223144531,-0.00069822371006012,0.124161686250486
1.47347861,0.210659980773926,0.0106675624847412,-0.00207974016666412,0.210940156698997
1.47847861,0.273219108581543,-0.00219321250915527,0.00251397490501404,0.273239476549466
1.48347861,0.311528205871582,-0.0197288990020752,-0.00360065698623657,0.31217305655699
1.48847861,0.331718444824219,-0.0174952745437622,0.0103015154600143,0.332339182897131
1.49347861,0.360237121582031,-0.0127562284469605,0.0313875079154968,0.361826865756322
1.49847861,0.334809303283691,-0.00234174728393555,0.048526331782341,0.33831576703119
1.50347861,0.281462669372559,0.00570392608642578,0.0714713707566261,0.290451245239122
1.50847861,0.217432975769043,0.0115382671356201,0.0848484933376312,0.23368675054855
1.51347861,0.157265663146973,0.0208449363708496,0.0856730192899704,0.180296606766798
1.51847861,0.0742321014404297,0.0363609790802002,0.101489052176476,0.130891380142515
1.52347861,0.00409221649169922,0.0646427869796753,0.0991166010499001,0.118404124708558
1.52847861,-0.0903530120849609,0.0672956705093384,0.108146108686924,0.156166433289137
1.53347861,-0.151120185852051,0.076124906539917,0.117165476083756,0.205815598907378
1.53847861,-0.204416275024414,0.0953660011291504,0.119016170501709,0.255040264482128
1.54347861,-0.251415252685547,0.104358315467834,0.115787208080292,0.295815761657911
1.54847861,-0.276298522949219,0.11026406288147,0.0981962233781815,0.313275494785
1.55347861,-0.285001754760742,0.100417137145996,0.0902188345789909,0.315355418158768
1.55847861,-0.253954887390137,0.0968596935272217,0.0733169689774513,0.281514232321503
1.56347861,-0.213442802429199,0.0903252363204956,0.0480561256408691,0.23669784417437
1.56847861,-0.169407844543457,0.0886645317077637,0.0495436862111092,0.197522135010742
1.57347861,-0.10483455657959,0.0780274868011475,0.0420349314808846,0.137278943812753
1.57847861,-0.045720100402832,0.0696966648101807,0.0394121110439301,0.092202316475492
1.58347861,0.00938987731933594,0.0619813203811646,0.0244529396295548,0.0672889302098896
1.58847861,0.0616321563720703,0.0643899440765381,0.0153776109218597,0.090449204059047
1.59347861,0.099858283996582,0.0554074048995972,0.0262005180120468,0.117167079610911
1.59847861,0.129910469055176,0.0425480604171753,0.00964739918708801,0.137040649905327
1.60347861,0.14411449432373,0.0385804176330566,0.0143707096576691,0.14987979648702
1.60847861,0.149751663208008,0.0456533432006836,0.014405220746994,0.157217361521346
1.61347861,0.137970924377441,0.047174334526062,0.00849463045597076,0.146060099130892
1.61847861,0.111299514770508,0.0520142316818237,0.0125725567340851,0.123495471449089
1.62347861,0.0975561141967773,0.0543595552444458,0.0117884129285812,0.112299257980288
1.62847861,0.0829477310180664,0.0547155141830444,0.0163676142692566,0.100707558654888
1.63347861,0.0528717041015625,0.0562773942947388,0.042150229215622,0.0879727459281461
1.63847861,0.0494213104248047,0.0702347755432129,0.0467824339866638,0.0977956325682643
1.64347861,0.036219596862793,0.0611517429351807,0.0570756494998932,0.0911538514092977
1.64847861,0.0462608337402344,0.0637924671173096,0.0478442162275314,0.0921879201722298
1.65347861,0.0385761260986328,0.0689191818237305,0.0438570082187653,0.090340513048858
1.65847861,0.046504020690918,0.0646321773529053,0.0449728518724442,0.0914467041250779
1.66347861,0.0588788986206055,0.0610604286193848,0.0473126471042633,0.0971266555687525
1.66847861,0.0692672729492188,0.0670051574707031,0.0259748250246048,0.0998115111825992
1.67347861,0.0663909912109375,0.0477778911590576,0.00975628197193146,0.0823752125065142
1.67847861,0.0759849548339844,0.0520153045654297,0.00743149220943451,0.0923825326921488
1.68347861,0.0495882034301758,0.054363489151001,0.00664335489273071,0.0738817503605205
1.68847861,0.0415725708007813,0.0603383779525757,-0.0232164561748505,0.0768635305867002
1.69347861,0.0392322540283203,0.0631725788116455,-0.0331717729568481,0.0814267216026588
1.69847861,0.0151081085205078,0.0461403131484985,-0.0418869853019714,0.0641225621618204
1.70347861,-0.0187835693359375,0.0590931177139282,-0.0642249286174774,0.0892729549979736
1.70847861,-0.0532407760620117,0.0628849267959595,-0.080830454826355,0.115423813319669
1.71347861,-0.077265739440918,0.0634998083114624,-0.089748740196228,0.134376547484129
1.71847861,-0.104424476623535,0.0500757694244385,-0.106421083211899,0.157281597631581
1.72347861,-0.123696327209473,0.0596046447753906,-0.144123166799545,0.199060247795091
1.72847861,-0.13947868347168,0.0569025278091431,-0.138613194227219,0.204709106851493
1.73347861,-0.145427703857422,0.0615993738174439,-0.136912748217583,0.20901866071821
1.73847861,-0.122313499450684,0.0476645231246948,-0.137616708874702,0.190186375626861
1.74347861,-0.0900974273681641,0.0645617246627808,-0.140957415103912,0.1793174714928
1.74847861,-0.0579071044921875,0.052537202835083,-0.128009676933289,0.149999559402582
1.75347861,-0.0435619354248047,0.0402964353561401,-0.111650198698044,0.126440546462276
1.75847861,-0.0323829650878906,0.0282458066940308,-0.130336999893188,0.137237806616242
1.76347861,0.0363378524780273,0.0438262224197388,-0.126140058040619,0.138392527026534
1.76847861,0.0790615081787109,0.0391594171524048,-0.120986610651016,0.149739580552468
1.77347861,0.0935831069946289,0.0396882295608521,-0.12680372595787,0.162518117135419
1.77847861,0.102197647094727,0.0379220247268677,-0.123422712087631,0.164668165988906
1.78347861,0.117717742919922,0.0236200094223022,-0.119712322950363,0.169547669135976
1.78847861,0.128776550292969,0.0154865980148315,-0.143422067165375,0.193373017697454
1.79347861,0.153448104858398,0.0205836296081543,-0.136896163225174,0.206665348324902
1.79847861,0.139212608337402,0.0258249044418335,-0.151475191116333,0.20734466362379
1.80347861,0.123870849609375,0.0286524295806885,-0.155268311500549,0.200681831913246
1.80847861,0.125101089477539,0.0318595170974731,-0.175087779760361,0.217534002030864
1.81347861,0.10605525970459,0.0290309190750122,-0.188075214624405,0.217859584892113
1.81847861,0.110426902770996,0.027851939201355,-0.186251908540726,0.218310798651679
1.82347861,0.0762290954589844,0.0195903778076172,-0.189028590917587,0.204759532333488
1.82847861,0.0460014343261719,0.0384517908096314,-0.21140244603157,0.219739997189096
1.83347861,0.0340356826782227,0.0385673046112061,-0.210550487041473,0.216742640644955
1.83847861,0.0268926620483398,0.042155385017395,-0.213930875062943,0.21969686175093
1.84347861,0.0241250991821289,0.0393291711807251,-0.204415529966354,0.209557898939018
1.84847861,0.00874614715576172,0.0400028228759766,-0.220936954021454,0.224699485047018
1.85347861,-0.0113763809204102,0.0522832870483398,-0.232894092798233,0.238961550479857
1.85847861,-0.036870002746582,0.0505849123001099,-0.235917508602142,0.244080522205244
1.86347861,-0.0422258377075195,0.0478241443634033,-0.231249272823334,0.23988829970533
1.86847861,-0.0455131530761719,0.0507981777191162,-0.229747921228409,0.239658109129011
1.87347861,-0.0508022308349609,0.0616981983184814,-0.212286353111267,0.226832603588719
1.87847861,-0.037078857421875,0.0444347858428955,-0.227449208498001,0.234696472719517
1.88347861,-0.0437002182006836,0.058445930480957,-0.206614315509796,0.219123506804162
1.88847861,-0.0402956008911133,0.0616164207458496,-0.209783285856247,0.222327114363834
1.89347861,-0.0322990417480469,0.0640991926193237,-0.21229812502861,0.224103611043987
1.89847861,-0.0249948501586914,0.0728888511657715,-0.195737987756729,0.210358948014518
1.90347861,-0.00379848480224609,0.079047441482544,-0.181656032800674,0.198146008651723
1.90847861,0.0125246047973633,0.0572184324264526,-0.167615115642548,0.177554616179178
1.91347861,0.0221109390258789,0.0725463628768921,-0.162352353334427,0.179193066340465
1.91847861,0.0338888168334961,0.0625274181365967,-0.149569183588028,0.165617241265492
1.92347861,0.0469913482666016,0.0636516809463501,-0.152217596769333,0.171551508490716
1.92847861,0.0484628677368164,0.0616036653518677,-0.146656036376953,0.166287865281443
1.93347861,0.0527429580688477,0.0781106948852539,-0.144604712724686,0.172608294190918
1.93847861,0.0573673248291016,0.0719306468963623,-0.14471510052681,0.171486116760108
1.94347861,0.065699577331543,0.0828038454055786,-0.14728918671608,0.181292624778226
1.94847861,0.0806865692138672,0.0675151348114014,-0.144210904836655,0.178508825983234
1.95347861,0.0721769332885742,0.0653707981109619,-0.132425904273987,0.164376005144883
1.95847861,0.0585222244262695,0.069631814956665,-0.126468300819397,0.155780844515953
1.96347861,0.0556163787841797,0.0755082368850708,-0.122691661119461,0.154427714918048
1.96847861,0.0426025390625,0.0630509853363037,-0.108160883188248,0.132246662485344
1.97347861,0.0535640716552734,0.0760359764099121,-0.118274390697479,0.150463985643608
1.97847861,0.0503263473510742,0.0859032869338989,-0.103495419025421,0.143608557206722
1.98347861,0.0310630798339844,0.0830537080764771,-0.0984271466732025,0.132479192918184
1.98847861,0.0341796875,0.0739806890487671,-0.0759690701961517,0.111412266004223
1.99347861,0.0548210144042969,0.0635838508605957,-0.0339686870574951,0.0905655641565194
1.99847861,0.0850343704223633,0.065407395362854,-0.038510650396347,0.113982637779752
2.00347861,0.0612545013427734,0.0639467239379883,-0.0287536680698395,0.09310247507249
2.00847861,0.019587516784668,0.0627965927124023,-0.0217180252075195,0.0692730502359427
2.01347861,-0.0150394439697266,0.0702712535858154,-0.00676590204238892,0.072180408601557
2.01847861,-0.0465812683105469,0.0580699443817139,0.00557577610015869,0.0746526776280235
2.02347861,-0.112581253051758,0.0629080533981323,0.0293161571025848,0.13225505203322
2.02847861,-0.144853591918945,0.0841997861862183,0.0308680236339569,0.170367256151796
2.03347861,-0.176907539367676,0.0819425582885742,0.0445577502250671,0.199990633403471
2.03847861,-0.165281295776367,0.0942814350128174,0.0373655259609222,0.193915131570302
2.04347861,-0.143229484558105,0.0846754312515259,0.0527904629707336,0.174560725494244
2.04847861,-0.114266395568848,0.0851092338562012,0.0763874053955078,0.161664549444037
2.05347861,-0.0844879150390625,0.0699044466018677,0.0784420967102051,0.13482582088997
2.05847861,-0.0602865219116211,0.0640052556991577,0.0873439908027649,0.123935911707093
2.06347861,-0.0376806259155273,0.055084228515625,0.0988703668117523,0.119287263503016
2.06847861,0.0127401351928711,0.0420622825622559,0.111731022596359,0.120064016547456
2.07347861,0.0465669631958008,0.0443181991577148,0.120452046394348,0.136533074082612
2.07847861,0.0781564712524414,0.0360193252563477,0.126877337694168,0.153309114572214
2.08347861,0.0894384384155273,0.0249124765396118,0.111991107463837,0.145471213319067
2.08847861,0.0796823501586914,0.0245851278305054,0.11774155497551,0.144280210719646
2.09347861,0.0665750503540039,0.0264605283737183,0.130229085683823,0.148633817314563
2.09847861,0.0743532180786133,0.026583194732666,0.132681876420975,0.154400607548777
2.10347861,0.0670156478881836,0.0212626457214355,0.146327883005142,0.162342374350368
2.10847861,0.0804891586303711,0.00292813777923584,0.235035687685013,0.248452919349816
2.11347861,0.153109550476074,-0.0246990919113159,0.528619229793549,0.550900054180206
2.11847861,0.214943885803223,-0.0598524808883667,0.782475829124451,0.813665543498481
2.12347861,0.240883827209473,-0.128861308097839,1.14151382446289,1.17374787172359
2.12847861,0.105127334594727,-0.256012916564941,1.71913349628448,1.74126802875789
2.13347861,-0.302927017211914,-0.298969745635986,1.83739495277405,1.88604557183598
2.13847861,-0.443427085876465,-0.302433490753174,1.81398522853851,1.89172831193434
2.14347861,-0.509013175964356,-0.224160671234131,1.52281200885773,1.62120289728176
2.14847861,-0.45065975189209,-0.165980815887451,1.13910269737244,1.23620338066973
2.15347861,-0.333394050598145,-0.103142023086548,0.703424513339996,0.785236216605064
2.15847861,-0.157922744750977,-0.0714443922042847,0.318194210529327,0.362341620713801
2.16347861,-0.0416679382324219,-0.0707525014877319,0.16115614771843,0.180868564130854
2.16847861,0.0370025634765625,-0.0729608535766602,0.110680475831032,0.137632276696477
2.17347861,0.0474119186401367,-0.078986406326294,0.0802985727787018,0.122207214205127
2.17847861,0.0410833358764648,-0.0764528512954712,0.0174717903137207,0.0885332842196226
2.18347861,0.034794807434082,-0.0695730447769165,-0.0322473049163818,0.0842079322764535
2.18847861,0.0223903656005859,-0.0657243728637695,-0.0534181296825409,0.0876043277403831
2.19347861,0.00509357452392578,-0.0512896776199341,-0.0576318204402924,0.0773175417292199
2.19847861,-0.0636472702026367,-0.0382131338119507,-0.0474010109901428,0.0880799321234135
2.20347861,-0.0851774215698242,-0.0356088876724243,-0.0177932679653168,0.094020138329171
2.20847861,-0.0705595016479492,-0.0481946468353272,0.0111920535564423,0.086177893448373
2.21347861,-0.0570917129516602,-0.0348480939865112,0.0190176069736481,0.0695379228712767
2.21847861,-0.0276956558227539,-0.0411893129348755,0.038716197013855,0.0629488106536984
2.22347861,0.0262622833251953,-0.0447123050689697,0.0355593860149384,0.0628758115955002
2.22847861,0.0970783233642578,-0.0361882448196411,0.0362823903560638,0.109773411080696
2.23347861,0.145320892333984,-0.0613805055618286,0.0379068851470947,0.162242596605596
2.23847861,0.183620452880859,-0.0694800615310669,0.0169019997119904,0.197052346499089
2.24347861,0.205100059509277,-0.0806474685668945,-0.00953963398933411,0.220592504889916
2.24847861,0.226875305175781,-0.0859040021896362,-0.0443085432052612,0.246607276234448
2.25347861,0.253071784973145,-0.10176694393158,-0.0738876760005951,0.282597289249978
2.25847861,0.268275260925293,-0.0852713584899902,-0.0915053486824036,0.296000082839094
2.26347861,0.240384101867676,-0.0987129211425781,-0.143818885087967,0.297006109262378
2.26847861,0.190804481506348,-0.0941498279571533,-0.169358491897583,0.271942712800125
2.27347861,0.131474494934082,-0.0969362258911133,-0.19166088104248,0.251825471368892
2.27847861,0.066258430480957,-0.0968307256698608,-0.19825604557991,0.230373237709017
2.28347861,-0.000624656677246094,-0.0791494846343994,-0.199405431747437,0.214540339619935
2.28847861,-0.0609893798828125,-0.0692217350006104,-0.20158651471138,0.221694555567939
2.29347861,-0.107570648193359,-0.047533392906189,-0.181874424219131,0.21658525799083
2.29847861,-0.178582191467285,-0.0432454347610474,-0.176357179880142,0.254683375256821
2.30347861,-0.221588134765625,-0.0331368446350098,-0.152790665626526,0.271190596156781
2.30847861,-0.248110771179199,-0.00210165977478027,-0.13788965344429,0.283860755082368
2.31347861,-0.272570610046387,-0.00198185443878174,-0.133470982313156,0.30350151289197
2.31847861,-0.242771148681641,-0.00730836391448975,-0.094407856464386,0.260584124952979
2.32347861,-0.22096061706543,-0.00897800922393799,-0.0950936079025269,0.240721817057532
2.32847861,-0.210100173950195,-0.00177192687988281,-0.0795954167842865,0.224679000335666
2.33347861,-0.225118637084961,0.00067901611328125,-0.0716274678707123,0.236240038899934
2.33847861,-0.219197273254395,0.00549960136413574,-0.0676828920841217,0.229474756995616
2.34347861,-0.198487281799316,0.00553476810455322,-0.0723356008529663,0.211329775102355
2.34847861,-0.135279655456543,-0.0187549591064453,-0.0794838666915894,0.158019045484308
2.35347861,-0.0936250686645508,-0.0105029344558716,-0.0787900984287262,0.122816304801254
2.35847861,-0.0361862182617188,-0.0171771049499512,-0.0983908176422119,0.10623204941471
2.36347861,0.0522518157958984,-0.0297359228134155,-0.103437572717667,0.119640331031206
2.36847861,0.0944204330444336,-0.035077691078186,-0.123791337013245,0.159593100437336
2.37347861,0.148301124572754,-0.0286024808883667,-0.129818439483643,0.19915861189635
2.37847861,0.207259178161621,-0.0435678958892822,-0.115072399377823,0.24103150329992
2.38347861,0.211048126220703,-0.0415729284286499,-0.118637233972549,0.245650998866402
2.38847861,0.223512649536133,-0.0461124181747437,-0.120726436376572,0.258184298617811
2.39347861,0.231498718261719,-0.0530699491500855,-0.121258139610291,0.266667606734226
2.39847861,0.227797508239746,-0.04157555103302,-0.120223701000214,0.260909887674126
2.40347861,0.221307754516602,-0.0482323169708252,-0.127197742462158,0.259774410396837
2.40847861,0.201145172119141,-0.0419774055480957,-0.140750348567963,0.249062529227885
2.41347861,0.16619873046875,-0.0623190402984619,-0.0948701798915863,0.201261103608739
2.41847861,0.127012252807617,-0.05415940284729,-0.0953992307186127,0.167828384076545
2.42347861,0.0908870697021484,-0.046273946762085,-0.0831899344921112,0.131614219553911
2.42847861,0.0469160079956055,-0.0295459032058716,-0.0690630972385407,0.0885651376257869
2.43347861,0.0108070373535156,-0.0300664901733398,-0.074642151594162,0.0811925900702132
2.43847861,-0.0319318771362305,-0.0350732803344727,-0.067073404788971,0.082149993310097
2.44347861,-0.0569686889648438,-0.0178698301315308,-0.0781100988388062,0.0983155628164277
2.44847861,-0.0642795562744141,-0.00511014461517334,-0.0717335045337677,0.0964555369355208
2.45347861,-0.0811033248901367,0.000767946243286133,-0.0725392401218414,0.108813052558605
2.45847861,-0.0865449905395508,0.00180637836456299,-0.0652489364147186,0.108400747661346
2.46347861,-0.0998983383178711,0.00262713432312012,-0.0478299558162689,0.110789370008182
2.46847861,-0.0916833877563477,0.00893914699554443,-0.071872740983963,0.116839389060524
2.47347861,-0.0808744430541992,0.0130866765975952,-0.0650893747806549,0.104635382892373
2.47847861,-0.0682954788208008,0.00411546230316162,-0.0814107656478882,0.106343416442705
2.48347861,-0.0639457702636719,0.0180891752243042,-0.0967943668365479,0.117411367619145
2.48847861,-0.0635929107666016,-0.00354278087615967,-0.0884615480899811,0.109004839739259
2.49347861,-0.0674104690551758,0.00145387649536133,-0.0977816879749298,0.118775180902111
2.49847861,-0.0759687423706055,-0.000517487525939941,-0.0942405462265015,0.121048742925238
2.50347861,-0.0699853897094727,-0.00456392765045166,-0.101403713226318,0.123294352119109
2.50847861,-0.0579328536987305,0.00390088558197022,-0.1122225522995,0.126354001482407
2.51347861,-0.0417795181274414,0.0126017332077026,-0.103281259536743,0.112122033455942
2.51847861,-0.0319318771362305,-0.0145667791366577,-0.101991295814514,0.107861301001718
2.52347861,-0.00780010223388672,0.00000822544097900391,-0.102314084768295,0.102610981890297
2.52847861,-0.00808429718017578,-0.00710105895996094,-0.0747839212417603,0.0755540586305199
2.53347861,0.006500244140625,-0.0167852640151978,-0.0743354558944702,0.0764837124163462
2.53847861,0.0196981430053711,-0.0228008031845093,-0.0588721632957459,0.0661349005808563
2.54347861,0.0366296768188477,-0.0182508230209351,-0.0552237629890442,0.0687349238994621
2.54847861,0.0558691024780273,-0.0247745513916016,-0.0518811941146851,0.0801672832963738
2.55347861,0.0643405914306641,-0.0168048143386841,-0.048757940530777,0.0824587791287748
2.55847861,0.0919933319091797,-0.020232081413269,-0.0457767844200134,0.10472642563318
2.56347861,0.0919485092163086,-0.0207206010818481,-0.0491112768650055,0.106281650211153
2.56847861,0.0910282135009766,-0.0234482288360596,-0.0484494566917419,0.105751146293799
2.57347861,0.0788478851318359,-0.0285971164703369,-0.0577924847602844,0.101856543014913
2.57847861,0.0770654678344727,-0.02187180519104,-0.0636866688728333,0.102339894405744
2.58347861,0.06268310546875,-0.0248888731002808,-0.0575821995735168,0.0886810995823385
2.58847861,0.065185546875,-0.0200686454772949,-0.0473214983940125,0.0830134342316995
2.59347861,0.0591278076171875,-0.0199102163314819,-0.0740148425102234,0.0968024341625494
2.59847861,0.0531101226806641,-0.0181136131286621,-0.0749897956848145,0.0936603308160944
2.60347861,0.0323314666748047,-0.0143049955368042,-0.0847335159778595,0.0918135358464217
2.60847861,0.017852783203125,-0.0110350847244263,-0.0868959128856659,0.0893946007273721
2.61347861,0.0155439376831055,-0.0102636814117432,-0.0698900520801544,0.072329638009496
2.61847861,0.000164031982421875,-0.00717425346374512,-0.087325394153595,0.0876197539561373
2.62347861,-0.0174932479858398,-0.010237455368042,-0.0916291773319244,0.0938441546183458
2.62847861,-0.0301198959350586,-0.0098649263381958,-0.0833901464939117,0.0892100971587457
2.63347861,-0.0603170394897461,-0.00187528133392334,-0.0683206617832184,0.0911557719477262
2.63847861,-0.0765781402587891,0.000315070152282715,-0.0732474625110626,0.105969342731779
2.64347861,-0.0897979736328125,0.00124132633209229,-0.0924140810966492,0.128862637504282
2.64847861,-0.0865259170532227,0.00392961502075195,-0.0951246619224548,0.128650213765753
2.65347861,-0.0776996612548828,-0.00172436237335205,-0.0781454741954804,0.110213093241931
2.65847861,-0.0773000717163086,-0.00434195995330811,-0.0877630114555359,0.117032046394682
2.66347861,-0.0599126815795898,-0.000652074813842773,-0.0821976959705353,0.101717333028765
2.66847861,-0.0545263290405273,0.00457072257995606,-0.082845002412796,0.0992839689391744
2.67347861,-0.0218534469604492,-0.00692868232727051,-0.0710505545139313,0.07465762572961
2.67847861,0.00278377532958984,-0.0120495557785034,-0.0721674859523773,0.0732194456973793
2.68347861,0.0169048309326172,-0.00838112831115723,-0.0647547841072083,0.067447747815621
2.68847861,0.0309734344482422,-0.00770282745361328,-0.0673027336597443,0.0744872146772462
2.69347861,0.05133056640625,-0.0221339464187622,-0.073719710111618,0.0925166703388966
2.69847861,0.0489387512207031,-0.0105879306793213,-0.0534984171390533,0.0732747315484413
2.70347861,0.0357046127319336,-0.0229970216751099,-0.0609905421733856,0.0743204454431374
2.70847861,0.0183677673339844,-0.0128337144851685,-0.0591479539871216,0.063249976799876
2.71347861,-0.00465583801269531,-0.0021587610244751,-0.0575131177902222,0.0577416296506534
2.71847861,-0.0686616897583008,0.0127636194229126,-0.0562000572681427,0.0896425348714583
2.72347861,-0.157931327819824,0.016114354133606,-0.0676047801971436,0.17254675604479
2.72847861,-0.258356094360352,0.0360559225082397,-0.0551221966743469,0.266620249807213
2.73347861,-0.285433769226074,0.0432853698730469,-0.0695467889308929,0.296955915432322
2.73847861,-0.283363342285156,0.0506491661071777,-0.0749253034591675,0.297445663738464
2.74347861,-0.24067211151123,0.0520893335342407,-0.0777935087680817,0.258240573755878
2.74847861,-0.14710807800293,0.0454330444335938,-0.0742364525794983,0.170926882121593
2.75347861,-0.039332389831543,0.0486396551132202,-0.0641743838787079,0.0896169877066019
2.75847861,0.0756320953369141,0.0143858194351196,-0.052246481180191,0.0930422508411312
2.76347861,0.181217193603516,0.0186172723770142,-0.0325092971324921,0.18504898942805
2.76847861,0.280932426452637,-0.00764071941375732,-0.00346991419792175,0.281057732735228
2.77347861,0.350774765014648,-0.0066903829574585,0.0151373744010925,0.351164971343894
2.77847861,0.387655258178711,-0.00699508190155029,0.00864982604980469,0.387814839653029
2.78347861,0.403433799743652,-0.00829613208770752,0.00759971141815186,0.403590649293139
2.78847861,0.388774871826172,-0.00248932838439941,0.0249504446983337,0.389582625908685
2.79347861,0.33283519744873,0.000802874565124512,0.0281992256641388,0.334028605955178
2.79847861,0.254876136779785,0.00346803665161133,0.0215890109539032,0.255812348748008
2.80347861,0.180600166320801,0.0108555555343628,0.0140915513038635,0.181474061450142
2.80847861,0.0995731353759766,0.00528991222381592,0.00843650102615356,0.100069810679858
2.81347861,0.0344076156616211,0.0191909074783325,-0.00524041056632996,0.039744645529473
2.81847861,-0.0111513137817383,0.0457234382629395,0.0100090801715851,0.0481161749469432
2.82347861,-0.0579671859741211,0.0481797456741333,0.0124918222427368,0.0764037182729129
2.82847861,-0.106632232666016,0.0332865715026856,0.0228928327560425,0.114028552026845
2.83347861,-0.14164924621582,0.0287197828292847,0.0292668640613556,0.147464857546662
2.83847861,-0.151443481445313,0.0434913635253906,0.032197505235672,0.160820726639869
2.84347861,-0.159193992614746,0.0462024211883545,0.0344297289848328,0.169300907399396
2.84847861,-0.167179107666016,0.0331952571868897,0.0300213396549225,0.173066634491993
2.85347861,-0.165797233581543,0.0478987693786621,0.0130544602870941,0.17307060323657
2.85847861,-0.174471855163574,0.0494118928909302,0.0228275954723358,0.18276504731029
2.86347861,-0.167025566101074,0.0404576063156128,0.0131747126579285,0.172359887136748
2.86847861,-0.150777816772461,0.0416920185089111,0.0132838785648346,0.156998840338846
2.87347861,-0.14223575592041,0.0324246883392334,0.0195817053318024,0.147193117569567
2.87847861,-0.138276100158691,0.0230621099472046,0.00938189029693604,0.140499682048954
2.88347861,-0.0852794647216797,0.0255894660949707,0.0185588896274567,0.090949657846778
2.88847861,-0.057103157043457,0.0100553035736084,0.018640398979187,0.0609043852968767
2.89347861,-0.0354413986206055,0.0133494138717651,0.0422661006450653,0.0567514127634116
2.89847861,-0.0188722610473633,0.00127077102661133,0.0480582416057587,0.0516466037826242
2.90347861,0.0306625366210938,-0.00324094295501709,0.0521039366722107,0.0605434974214352
2.90847861,0.071319580078125,-0.00191056728363037,0.077287495136261,0.105183124474903
2.91347861,0.0990171432495117,0.00264358520507813,0.0874588489532471,0.132137933464459
2.91847861,0.127907752990723,-0.0106252431869507,0.0800317823886871,0.151255992477084
2.92347861,0.150649070739746,-0.0205345153808594,0.139486819505692,0.206333181171835
2.92847861,0.182644844055176,-0.0289725065231323,0.259119689464569,0.318341889581606
2.93347861,0.199808120727539,-0.0433385372161865,0.340862780809402,0.397478237464428
2.93847861,0.200254440307617,-0.0423281192779541,0.413993388414383,0.461826846551116
2.94347861,0.178756713867188,-0.046162486076355,0.445772975683212,0.482491951977244
2.94847861,0.0945272445678711,-0.0588831901550293,0.420621633529663,0.435115144118875
2.95347861,-0.0625486373901367,-0.0585641860961914,0.306654572486877,0.318400883729273
2.95847861,-0.127888679504395,-0.0560380220413208,0.278526723384857,0.311565257850079
2.96347861,-0.139870643615723,-0.0558538436889648,0.26497894525528,0.304790567814866
2.96847861,-0.133648872375488,-0.0658277273178101,0.259342104196548,0.299088010090945
2.97347861,-0.112003326416016,-0.066034197807312,0.273635625839233,0.302954973777848
2.97847861,-0.102967262268066,-0.0603681802749634,0.268098205327988,0.293467582517693
2.98347861,-0.0842437744140625,-0.0536820888519287,0.26257935166359,0.280938954420893
2.98847861,-0.0825643539428711,-0.050969123840332,0.232770189642906,0.252183832379178
2.99347861,-0.098475456237793,-0.0513168573379517,0.199425846338272,0.228257537698148
2.99847861,-0.126669883728027,-0.0598921775817871,0.180099532008171,0.228184517022349
3.00347861,-0.125377655029297,-0.0518374443054199,0.151831120252609,0.203615731440194
3.00847861,-0.107691764831543,-0.0402470827102661,0.139442130923271,0.180724795630378
3.01347861,-0.099365234375,-0.0436947345733643,0.125155836343765,0.165670344367188
3.01847861,-0.093144416809082,-0.0448743104934692,0.0961899757385254,0.141216491804415
3.02347861,-0.0711669921875,-0.0394163131713867,0.0842725038528442,0.117133434281883
3.02847861,-0.0441923141479492,-0.0297514200210571,0.0523458123207092,0.0746872926978566
3.03347861,-0.0157527923583984,-0.0266351699829102,0.0206173956394196,0.0371841330416307
3.03847861,0.0174446105957031,-0.0215387344360352,0.0104869604110718,0.0296345720165679
3.04347861,0.0630664825439453,-0.0400702953338623,0.00514674186706543,0.074896586974674
3.04847861,0.0869035720825195,-0.0294731855392456,0.0106260776519775,0.0923786394833693
3.05347861,0.0980195999145508,-0.021182656288147,-0.00560149550437927,0.100438656137545
3.05847861,0.119052886962891,-0.0399127006530762,-0.0182909369468689,0.126890393418947
3.06347861,0.154823303222656,-0.0371251106262207,-0.0143605768680573,0.159858547559294
3.06847861,0.157668113708496,-0.0291563272476196,-0.0108495354652405,0.16070792736756
3.07347861,0.152897834777832,-0.0288795232772827,-0.0114130079746246,0.156019330518693
3.07847861,0.143699645996094,-0.0283383131027222,-0.0138812065124512,0.147123540411288
3.08347861,0.123820304870605,-0.0293420553207397,-0.0281626582145691,0.130328659267276
3.08847861,0.0883607864379883,-0.0336436033248901,-0.0194898843765259,0.0965369163461972
3.09347861,0.0479068756103516,-0.0178405046463013,-0.028313934803009,0.0584382686328868
3.09847861,0.00532150268554688,-0.0191007852554321,-0.0166400969028473,0.0258853474603406
3.10347861,-0.0243635177612305,-0.00632739067077637,-0.0496768653392792,0.0556902847931244
3.10847861,-0.0526199340820313,-0.0118359327316284,-0.0408802926540375,0.0676767692336499
3.11347861,-0.0654993057250977,0.0113410949707031,-0.0541545152664185,0.0857408362995432
3.11847861,-0.0925302505493164,0.00705444812774658,-0.043332427740097,0.102417341299982
3.12347861,-0.112398147583008,0.00722134113311768,-0.0422757565975189,0.120302663909596
3.12847861,-0.131818771362305,0.00667881965637207,-0.0536279082298279,0.142466654542657
3.13347861,-0.134756088256836,0.0180556774139404,-0.0534558594226837,0.146091545668386
3.13847861,-0.146979331970215,0.0101584196090698,-0.0389209985733032,0.152384256553319
3.14347861,-0.100557327270508,-0.000966072082519531,-0.0230987071990967,0.103180713494947
3.14847861,-0.0862483978271484,0.0146130323410034,-0.0327083766460419,0.0933925304548957
3.15347861,-0.0750970840454102,0.0142399072647095,-0.0294961929321289,0.0819290692521299
3.15847861,-0.0610313415527344,0.0137507915496826,-0.0329325199127197,0.0706997863346915
3.16347861,-0.0413579940795898,0.00902843475341797,-0.0374303758144379,0.0565068964109176
3.16847861,-0.00409317016601563,0.0123918056488037,-0.038646787405014,0.0407907473083546
3.17347861,0.0449619293212891,0.0125335454940796,-0.0289283990859985,0.0549137243739992
3.17847861,0.0906991958618164,-0.00184190273284912,-0.0209794938564301,0.0931121683676704
3.18347861,0.127289772033691,0.00335597991943359,-0.0142542123794556,0.128129353530592
3.18847861,0.141843795776367,0.00235331058502197,-0.0277635753154755,0.144554545363525
3.19347861,0.110452651977539,-0.0151448249816895,-0.0357006788253784,0.117062771713257
3.19847861,0.0807094573974609,-0.003082275390625,-0.0451438128948212,0.0925282701538229
3.20347861,0.0700759887695313,-0.0118958950042725,-0.0308552980422974,0.0774868113762539
3.20847861,0.0585947036743164,0.00561594963073731,-0.034803569316864,0.0683825023389002
3.21347861,0.0465126037597656,0.01164710521698,-0.0390214323997498,0.0618203005086242
3.21847861,0.0359201431274414,0.0107731819152832,-0.0297336280345917,0.0478581943555659
3.22347861,0.00631809234619141,0.0140511989593506,-0.0376290380954742,0.0406607795188546
3.22847861,0.0125398635864258,0.00177896022796631,-0.0207421481609344,0.0243032834939851
3.23347861,0.00249385833740234,0.0208438634872437,-0.0252173840999603,0.0328116204312864
3.23847861,-0.0136852264404297,0.0166797637939453,-0.0248970091342926,0.0329448176012661
3.24347861,-0.00523185729980469,0.0106635093688965,-0.0347930788993835,0.036764671930602
3.24847861,-0.00465869903564453,0.0180022716522217,-0.0404954254627228,0.0445607982957222
3.25347861,0.00290679931640625,0.0232056379318237,-0.0551638901233673,0.0599166578476445
3.25847861,-0.00537109375,0.0271488428115845,-0.0469947457313538,0.0545381924932795
3.26347861,-0.00583648681640625,0.0181382894515991,-0.0351026952266693,0.0399407227621698
3.26847861,-0.0218887329101563,0.0159174203872681,-0.0339935421943665,0.0434516030903044
3.27347861,-0.0272254943847656,0.021601676940918,-0.043254017829895,0.0554866655114863
3.27847861,-0.0325145721435547,0.0199661254882813,-0.0585130751132965,0.06985430214315
3.28347861,-0.0333108901977539,0.0310603380203247,-0.0741335451602936,0.0870065659691091
3.28847861,-0.0535211563110352,0.025562047958374,-0.0610551536083221,0.0851214676261652
3.29347861,-0.0670633316040039,0.0154639482498169,-0.059661865234375,0.0910832712661679
3.29847861,-0.067784309387207,0.0222771167755127,-0.0518220961093903,0.0881845347898446
3.30347861,-0.0646181106567383,0.0191129446029663,-0.0502195656299591,0.0840405238459655
3.30847861,-0.0566196441650391,0.0132235288619995,-0.0553887486457825,0.0803029220980498
3.31347861,-0.0405445098876953,0.0209113359451294,-0.0484228432178497,0.0665275356400937
3.31847861,-0.014744758605957,0.0105792284011841,-0.0562482476234436,0.0591032430634783
3.32347861,-0.002166748046875,0.00589072704315186,-0.0514216125011444,0.0518032594960337
3.32847861,0.0211353302001953,0.000904560089111328,-0.0530348420143127,0.0570982913852001
3.33347861,0.0754938125610352,0.0136464834213257,-0.0458118319511414,0.089354721148291
3.33847861,0.17009162902832,0.0618414878845215,-0.070871889591217,0.194366552224164
3.34347861,0.241487503051758,0.107097268104553,-0.164724469184876,0.311320075989118
3.34847861,0.264456748962402,0.140832304954529,-0.166441679000855,0.34274471943298
3.35347861,0.254469871520996,0.155762314796448,-0.119498550891876,0.321398067648078
3.35847861,0.27774715423584,0.181633353233337,-0.0515818595886231,0.335849437890722
3.36347861,0.302647590637207,0.188051223754883,0.00445988774299622,0.35634073226744
3.36847861,0.346037864685059,0.204680681228638,0.00603500008583069,0.402085570855322
3.37347861,0.361871719360352,0.201166033744812,0.0200076401233673,0.414510820207075
3.37847861,0.295969009399414,0.214873313903809,0.0489645600318909,0.369006400611144
3.38347861,0.191365242004395,0.222675681114197,0.0800095796585083,0.304313403655184
3.38847861,0.0985851287841797,0.229271650314331,0.0911714732646942,0.265700498291789
3.39347861,0.0644330978393555,0.24217963218689,0.085134893655777,0.264670641479431
3.39847861,0.0340671539306641,0.261070370674133,0.0646712481975555,0.271110087905808
3.40347861,-0.0337629318237305,0.289849519729614,0.023571640253067,0.292759802358592
3.40847861,-0.0878677368164063,0.282253861427307,-0.0103853940963745,0.295796953794997
3.41347861,-0.133404731750488,0.284116983413696,-0.0346365571022034,0.315783111969929
3.41847861,-0.160783767700195,0.297036528587341,-0.0468731224536896,0.34099737371371
3.42347861,-0.169261932373047,0.289387226104736,-0.0584628582000732,0.340312318572475
3.42847861,-0.160890579223633,0.276595234870911,-0.0458102822303772,0.323248023032218
3.43347861,-0.166830062866211,0.275089383125305,-0.0402891635894775,0.324237035649761
3.43847861,-0.143946647644043,0.247004985809326,-0.0469925999641418,0.289724705253131
3.44347861,-0.142889976501465,0.235815644264221,-0.0435715019702911,0.279150567343658
3.44847861,-0.133277893066406,0.216250896453857,-0.026312381029129,0.255381652419941
3.45347861,-0.140386581420898,0.208986043930054,0.00227761268615723,0.251771218212347
3.45847861,-0.172781944274902,0.204572081565857,0.0165196359157562,0.268283870544601
3.46347861,-0.18464183807373,0.203087329864502,0.0216378569602966,0.275327566314332
3.46847861,-0.196142196655273,0.199814796447754,0.0398926734924316,0.282823513143068
3.47347861,-0.227938652038574,0.19436252117157,0.0635763704776764,0.306226670315382
3.47847861,-0.270113945007324,0.175811886787415,0.0860546827316284,0.333581730979398
3.48347861,-0.282920837402344,0.180000305175781,0.0968398153781891,0.349030457041072
3.48847861,-0.259433746337891,0.174506902694702,0.131622985005379,0.339239057316131
3.49347861,-0.223381042480469,0.140792608261108,0.158046677708626,0.307734302630307
3.49847861,-0.180863380432129,0.129770517349243,0.170586675405502,0.280449217114845
3.50347861,-0.118021965026855,0.103121042251587,0.207388922572136,0.259948646446727
3.50847861,-0.0475320816040039,0.0899064540863037,0.213631719350815,0.236603002476232
3.51347861,-0.00751399993896484,0.0793920755386353,0.212046578526497,0.226546492619526
3.51847861,-0.0182161331176758,0.0597712993621826,0.195627272129059,0.205364226032338
3.52347861,0.00924301147460938,0.0412999391555786,0.189292415976524,0.193965813950819
3.52847861,0.0646286010742188,0.0102747678756714,0.208691075444222,0.218710749396949
3.53347861,0.146749496459961,-0.0103495121002197,0.201493859291077,0.249484072525636
3.53847861,0.203120231628418,-0.0541840791702271,0.193670779466629,0.285835816075451
3.54347861,0.249741554260254,-0.0872197151184082,0.202799648046494,0.333325396388342
3.54847861,0.270368576049805,-0.0943955183029175,0.225341722369194,0.364401663869953
3.55347861,0.326081275939941,-0.109171986579895,0.238128185272217,0.418273300359299
3.55847861,0.34645938873291,-0.1214359998703,0.24459134042263,0.441141399004243
3.56347861,0.318520545959473,-0.127564787864685,0.236561238765717,0.41676052234785
3.56847861,0.301568984985352,-0.116083383560181,0.21261565387249,0.386813418737641
3.57347861,0.25413990020752,-0.110455632209778,0.205622285604477,0.345062400011301
3.57847861,0.168968200683594,-0.10140585899353,0.169298142194748,0.259798502749843
3.58347861,0.080683708190918,-0.10078489780426,0.170824468135834,0.214122524052802
3.58847861,0.00580215454101563,-0.0892277956008911,0.150675788521767,0.17520975358629
3.59347861,-0.0652093887329102,-0.081049919128418,0.161380872130394,0.192002967839587
3.59847861,-0.142142295837402,-0.0640460252761841,0.157875463366508,0.221880570471583
3.60347861,-0.21461009979248,-0.0613117218017578,0.118946149945259,0.252912650434957
3.60847861,-0.242069244384766,-0.051604151725769,0.0971617251634598,0.265896424175067
3.61347861,-0.259925842285156,-0.0640205144882202,0.111665457487106,0.290050416580961
3.61847861,-0.25867748260498,-0.0582704544067383,0.0963349342346191,0.282116829376778
3.62347861,-0.260561943054199,-0.065683126449585,0.0830967128276825,0.281268311317038
3.62847861,-0.251802444458008,-0.0762970447540283,0.0705701410770416,0.272407516204784
3.63347861,-0.202223777770996,-0.0742325782775879,0.0693185031414032,0.226296236936181
3.63847861,-0.155055046081543,-0.095302939414978,0.0319431871175766,0.184783886688512
3.64347861,-0.0971536636352539,-0.109959125518799,0.00493189692497253,0.146813375582368
3.64847861,-0.042445182800293,-0.122089266777039,-0.00994572043418884,0.129639114313776
3.65347861,0.0231170654296875,-0.131381988525391,-0.0405191779136658,0.139418181747452
3.65847861,0.0814170837402344,-0.134930849075317,-0.0690165758132935,0.172041748694735
3.66347861,0.102404594421387,-0.12886381149292,-0.110341787338257,0.198161280032434
3.66847861,0.131167411804199,-0.133544921875,-0.131382137537003,0.228692811740562
3.67347861,0.143674850463867,-0.133427977561951,-0.192884773015976,0.275045493534273
3.67847861,0.107113838195801,-0.1119464635849,-0.218632876873016,0.267965893150552
3.68347861,0.0449838638305664,-0.0964282751083374,-0.228402584791183,0.251971627340838
3.68847861,0.014582633972168,-0.090421199798584,-0.263733059167862,0.279184120401968
3.69347861,0.0160236358642578,-0.075437068939209,-0.288288623094559,0.29842559957585
3.69847861,0.0040435791015625,-0.056704044342041,-0.304321616888046,0.309585764663121
3.70347861,-0.0542373657226563,-0.0419402122497559,-0.345583826303482,0.352319250462763
3.70847861,-0.186352729797363,-0.0140783786773682,-0.35389444231987,0.400208466869461
3.71347861,-0.403873443603516,0.00457084178924561,-0.374011814594269,0.550472059689611
3.71847861,-0.663477897644043,0.0568124055862427,-0.391993790864944,0.772715796504332
3.72347861,-0.967132568359375,0.100496768951416,-0.423554092645645,1.06058619392671
3.72847861,-1.27309608459473,0.145048975944519,-0.455018490552902,1.35972595502845
3.73347861,-1.58895015716553,0.161919474601746,-0.480352252721787,1.66784855574676
3.73847861,-1.86951637268066,0.187857985496521,-0.495631277561188,1.94320159883961
3.74347861,-2.09091377258301,0.227882385253906,-0.510220766067505,2.16429573210613
3.74847861,-2.22239017486572,0.250520348548889,-0.520382821559906,2.29620922725944
3.75347861,-2.23606777191162,0.262018799781799,-0.537680208683014,2.31468203838676
3.75847861,-2.13027667999268,0.254632234573364,-0.557674527168274,2.21673570514322
3.76347861,-1.92672824859619,0.225363731384277,-0.545616209506989,2.01513463655379
3.76847861,-1.72163009643555,0.209274768829346,-0.518538773059845,1.81016258302608
3.77347861,-1.54443168640137,0.205571532249451,-0.521021068096161,1.64286087123409
3.77847861,-1.3183422088623,0.19403088092804,-0.518909633159638,1.43001446489451
3.78347861,-0.95290470123291,0.161401510238647,-0.486567616462708,1.08204707038525
3.78847861,-0.516029357910156,0.106329679489136,-0.432999312877655,0.681968257265653
3.79347861,-0.113481521606445,0.0714064836502075,-0.389816820621491,0.412230633617698
3.79847861,0.161543846130371,0.0366338491439819,-0.324272036552429,0.364130205854385
3.80347861,0.360372543334961,0.0167561769485474,-0.261421918869019,0.445522793042959
3.80847861,0.533923149108887,-0.00386583805084229,-0.211754024028778,0.5743941508673
3.81347861,0.671687126159668,-0.00427722930908203,-0.153551876544952,0.689028351325018
3.81847861,0.756645202636719,-0.0117406845092773,-0.0927063226699829,0.76239377529522
3.82347861,0.76356315612793,0.00182843208312988,-0.0496798753738403,0.765179800162738
3.82847861,0.787139892578125,-0.0125807523727417,-0.0107218623161316,0.787313434503497
3.83347861,0.858115196228027,-0.0373966693878174,0.0280317664146423,0.85938697965881
3.83847861,1.01515960693359,-0.0630559921264648,0.0989066660404205,1.02191370197285
3.84347861,1.24077415466309,-0.0944005250930786,0.142104148864746,1.25244782372054
3.84847861,1.45824432373047,-0.151238918304443,0.20361453294754,1.48013803279609
3.85347861,1.6202507019043,-0.182875752449036,0.238919585943222,1.6479497705945
3.85847861,1.73672819137573,-0.205113410949707,0.27623575925827,1.77048087161755
3.86347861,1.85361671447754,-0.228469014167786,0.282608687877655,1.88890462572604
3.86847861,1.9730863571167,-0.23693060874939,0.325298368930817,2.01370924287283
3.87347861,2.0089955329895,-0.249618053436279,0.333528459072113,2.05173425598544
3.87847861,2.00837469100952,-0.253708720207214,0.337619721889496,2.05229727154852
3.88347861,1.9020471572876,-0.237123966217041,0.337478399276733,1.94625353792324
3.88847861,1.77715921401978,-0.217219471931458,0.341261118650436,1.82261853443449
3.89347861,1.66299438476563,-0.209299445152283,0.360595554113388,1.71446368732306
3.89847861,1.53478908538818,-0.194892525672913,0.358209431171417,1.58804112974759
3.90347861,1.40267181396484,-0.203195691108704,0.359386622905731,1.46216806534001
3.90847861,1.20534801483154,-0.194337010383606,0.358287334442139,1.2723995144941
3.91347861,0.967286109924316,-0.161665320396423,0.368162631988525,1.0475312968423
3.91847861,0.761045455932617,-0.157263398170471,0.375177770853043,0.862948620800838
3.92347861,0.553906440734863,-0.146277666091919,0.379113376140595,0.686976311566551
3.92847861,0.399013519287109,-0.154753804206848,0.406965136528015,0.5905769643659
3.93347861,0.210903167724609,-0.167251825332642,0.412476450204849,0.492534406114912
3.93847861,0.0463266372680664,-0.179979085922241,0.426555424928665,0.465282880865014
3.94347861,-0.107437133789063,-0.183195114135742,0.449514746665955,0.497158621598956
3.94847861,-0.270411491394043,-0.195583462715149,0.46791797876358,0.574736896689079
3.95347861,-0.43896484375,-0.238864421844482,0.470683157444,0.686504902220672
3.95847861,-0.590349197387695,-0.253891706466675,0.48440158367157,0.804747207346743
3.96347861,-0.714852333068848,-0.268240690231323,0.466109544038773,0.89455297944492
3.96847861,-0.866203308105469,-0.288304567337036,0.460891723632813,1.02266752927502
3.97347861,-1.01794052124023,-0.292417168617249,0.427481025457382,1.14212553268503
3.97847861,-1.11813354492188,-0.299793004989624,0.416520893573761,1.23027969377038
3.98347861,-1.19853019714355,-0.31194543838501,0.387245446443558,1.29759147106686
3.98847861,-1.21902942657471,-0.322068691253662,0.334825873374939,1.30455714716612
3.99347861,-1.16117572784424,-0.334595561027527,0.337897837162018,1.25477416643502
3.99847861,-0.996669769287109,-0.364528775215149,0.330550611019135,1.11152848070385
4.00347861,-0.782588005065918,-0.411903977394104,0.339661657810211,0.947353637272015
4.00847861,-0.564773559570313,-0.452560186386108,0.365572541952133,0.810816365967594
4.01347861,-0.343443870544434,-0.480329513549805,0.359711527824402,0.691420651305194
4.01847861,-0.0908050537109375,-0.511261343955994,0.370114266872406,0.637666284309931
4.02347861,0.118232727050781,-0.556957483291626,0.386521309614182,0.688171009797905
4.02847861,0.303614616394043,-0.587171077728272,0.378459095954895,0.761697444606241
4.03347861,0.447776794433594,-0.622617721557617,0.387494772672653,0.85924913946972
4.03847861,0.534370422363281,-0.647400617599487,0.380126267671585,0.921507073949429
4.04347861,0.520378112792969,-0.651287317276001,0.35935777425766,0.907803150378958
4.04847861,0.468514442443848,-0.656371831893921,0.351886421442032,0.879860112789261
4.05347861,0.38093376159668,-0.651342988014221,0.304502010345459,0.813682796342602
4.05847861,0.344820022583008,-0.656636118888855,0.293103337287903,0.797484424257221
4.06347861,0.304801940917969,-0.665469646453857,0.247246414422989,0.772583240164972
4.06847861,0.28089714050293,-0.661282062530518,0.218642026185989,0.751000336472663
4.07347861,0.289260864257813,-0.659748077392578,0.158597618341446,0.737626313086755
4.07847861,0.330365180969238,-0.672891736030579,0.153949052095413,0.765261231120563
4.08347861,0.468731880187988,-0.670464038848877,0.088739812374115,0.822864725938783
4.08847861,0.673288345336914,-0.697304487228394,0.0829433500766754,0.972846515745066
4.09347861,0.904294967651367,-0.738539814949036,0.0579699873924255,1.16899570838512
4.09847861,1.13049125671387,-0.76893937587738,0.0524167120456696,1.36821992274008
4.10347861,1.32422256469727,-0.805084228515625,0.0401111245155335,1.55026930504603
4.10847861,1.48001098632813,-0.815061688423157,0.0362328588962555,1.68999138922391
4.11347861,1.53745651245117,-0.814403653144836,-0.0159538388252258,1.73990814783638
4.11847861,1.53150367736816,-0.794267654418945,-0.0256461501121521,1.72540498018986
4.12347861,1.44547557830811,-0.762386441230774,-0.0519044399261475,1.63503113246865
4.12847861,1.3329906463623,-0.730446219444275,-0.0791108012199402,1.52206250254695
4.13347861,1.19972515106201,-0.70354437828064,-0.113077461719513,1.3953858400636
4.13847861,1.03658294677734,-0.650658369064331,-0.129319310188293,1.23068436358419
4.14347861,0.907157897949219,-0.634161233901978,-0.138261556625366,1.11544259396716
4.14847861,0.792313575744629,-0.62261962890625,-0.131261855363846,1.01619175320515
4.15347861,0.741694450378418,-0.591694951057434,-0.123093277215958,0.956747368809953
4.15847861,0.737638473510742,-0.581239104270935,-0.117135852575302,0.94639855340944
4.16347861,0.752715110778809,-0.583833336830139,-0.1209357380867,0.960243123347178
4.16847861,0.751711845397949,-0.580595254898071,-0.131402969360352,0.9588682333243
4.17347861,0.771743774414063,-0.564508557319641,-0.127061724662781,0.964574023343075
4.17847861,0.776816368103027,-0.566738367080689,-0.135844171047211,0.971128047829722
4.18347861,0.77860164642334,-0.559784293174744,-0.169213950634003,0.973761952320715
4.18847861,0.762571334838867,-0.554607629776001,-0.187345445156097,0.961354762584771
4.19347861,0.701467514038086,-0.524801969528198,-0.218243837356567,0.902831187440691
4.19847861,0.589321136474609,-0.519273638725281,-0.238771617412567,0.820948475272676
4.20347861,0.522939682006836,-0.487391352653503,-0.26915454864502,0.763845804279324
4.20847861,0.443387031555176,-0.474953055381775,-0.321653664112091,0.725005892530901
4.21347861,0.361483573913574,-0.446531176567078,-0.350380837917328,0.672924362343464
4.21847861,0.284152030944824,-0.424824953079224,-0.372574090957642,0.632479304563988
4.22347861,0.228828430175781,-0.387129664421082,-0.383605539798737,0.591088011801772
4.22847861,0.215948104858398,-0.376453280448914,-0.391407191753387,0.584423002720594
4.23347861,0.187419891357422,-0.362624645233154,-0.399011373519897,0.570817768823934
4.23847861,0.158260345458984,-0.349356651306152,-0.411570250988007,0.562571309484386
4.24347861,0.07611083984375,-0.316773653030396,-0.41528046131134,0.527822194250016
4.24847861,-0.0357742309570313,-0.304182767868042,-0.40689218044281,0.509282042068964
4.25347861,-0.234192848205566,-0.240785241127014,-0.412427127361298,0.531902207063217
4.25847861,-0.479823112487793,-0.191888213157654,-0.410843074321747,0.660184320735092
4.26347861,-0.829526901245117,-0.130438208580017,-0.429936587810516,0.943384585248795
4.26847861,-1.20538711547852,-0.055924654006958,-0.440285980701447,1.28449889446805
4.27347861,-1.56212329864502,0.026039719581604,-0.465929090976715,1.63033652507201
4.27847861,-1.83945941925049,0.110201358795166,-0.469055354595184,1.90151734681124
4.28347861,-2.00788307189941,0.186287403106689,-0.457805454730988,2.06782089682784
4.28847861,-2.06772804260254,0.220387935638428,-0.456161320209503,2.12888544792696
4.29347861,-2.04411697387695,0.28117048740387,-0.421049237251282,2.10588544466899
4.29847861,-1.96165370941162,0.309017777442932,-0.393208920955658,2.02439880407573
4.30347861,-1.80579948425293,0.349962830543518,-0.357172727584839,1.87375508469505
4.30847861,-1.56239223480225,0.341440677642822,-0.329643309116364,1.6328857715605
4.31347861,-1.24158477783203,0.371863722801209,-0.263964474201202,1.32268387474865
4.31847861,-0.95018482208252,0.354097723960876,-0.21098518371582,1.03573700425246
4.32347861,-0.663017272949219,0.328532814979553,-0.165009438991547,0.758125207141745
4.32847861,-0.38811206817627,0.327591061592102,-0.13042813539505,0.52436473909077
4.33347861,-0.120881080627441,0.3223637342453,-0.112214982509613,0.362108844285617
4.33847861,0.109980583190918,0.310680747032166,-0.0567785501480103,0.3344279578809
4.34347861,0.324602127075195,0.29956841468811,0.0111458301544189,0.441850659737337
4.34847861,0.462721824645996,0.274629235267639,0.0197479128837585,0.538444689759935
4.35347861,0.588290214538574,0.26538610458374,0.044174075126648,0.646889874662812
4.35847861,0.69265079498291,0.26912248134613,0.0854367911815643,0.747991630330018
4.36347861,0.758433341979981,0.251815676689148,0.112824857234955,0.807069834440257
4.36847861,0.779220581054688,0.248329997062683,0.161308705806732,0.833590426978021
4.37347861,0.827330589294434,0.227655529975891,0.193745076656342,0.879681816931242
4.37847861,0.914644241333008,0.213320970535278,0.219251573085785,0.964443454524078
4.38347861,0.978806495666504,0.188594937324524,0.256523936986923,1.02928846131231
4.38847861,1.01231002807617,0.16606605052948,0.272364914417267,1.0613821991571
4.39347861,1.05523777008057,0.153194308280945,0.303553581237793,1.10866587580595
4.39847861,1.12274169921875,0.138303756713867,0.315754652023315,1.17446917905926
4.40347861,1.16866207122803,0.116863012313843,0.339757919311523,1.22264608293199
4.40847861,1.10867404937744,0.0892914533615112,0.368139207363129,1.17160470612077
4.41347861,0.872592926025391,0.0885336399078369,0.372604608535767,0.952937990766962
4.41847861,0.607858657836914,0.0995049476623535,0.361399233341217,0.714144795105448
4.42347861,0.414298057556152,0.11867344379425,0.338881522417069,0.548239868116592
4.42847861,0.232246398925781,0.121359586715698,0.326513379812241,0.418661589231936
4.43347861,0.0292892456054688,0.130117893218994,0.307157605886459,0.334864630705885
4.43847861,-0.117792129516602,0.118258118629456,0.261681437492371,0.310382253239304
4.44347861,-0.305341720581055,0.134223461151123,0.252216726541519,0.418165973027583
4.44847861,-0.513047218322754,0.125844717025757,0.231121644377708,0.576603464724124
4.45347861,-0.659647941589356,0.116982936859131,0.211724743247032,0.702600726773238
4.45847861,-0.692746162414551,0.0848151445388794,0.200369268655777,0.726112042390766
4.46347861,-0.771785736083984,0.0769532918930054,0.197127550840378,0.800271393251185
4.46847861,-0.842369079589844,0.0669658184051514,0.172733053565025,0.862500315871021
4.47347861,-0.884037017822266,0.0522207021713257,0.175750210881233,0.902849149769854
4.47847861,-0.905403137207031,0.0400644540786743,0.171416595578194,0.922357658711942
4.48347861,-0.93480396270752,0.0277749300003052,0.176839932799339,0.951788977275256
4.48847861,-0.922585487365723,0.0155596733093262,0.168519705533981,0.937979198108679
4.49347861,-0.853047370910645,-0.0133700370788574,0.188011541962624,0.873622867615206
4.49847861,-0.800954818725586,-0.0375740528106689,0.220182627439499,0.831517179925055
4.50347861,-0.766081809997559,-0.0554796457290649,0.251661121845245,0.80826521077414
4.50847861,-0.723381042480469,-0.0648562908172607,0.277551114559174,0.7775095448107
4.51347861,-0.619935035705566,-0.0779355764389038,0.289264351129532,0.688525429744258
4.51847861,-0.48463249206543,-0.0796760320663452,0.323887854814529,0.588319866184836
4.52347861,-0.386221885681152,-0.0780187845230103,0.332805871963501,0.515765473961702
4.52847861,-0.296237945556641,-0.0904666185379028,0.359308779239655,0.47438795125508
4.53347861,-0.224211692810059,-0.0905941724777222,0.362523943185806,0.435777232841117
4.53847861,-0.132737159729004,-0.0956555604934692,0.35795333981514,0.393573034278335
4.54347861,-0.00587177276611328,-0.105708241462708,0.364833295345306,0.379884250030283
4.54847861,0.110404014587402,-0.118207573890686,0.345280796289444,0.381288480351046
4.55347861,0.19953441619873,-0.107599020004272,0.352156102657318,0.418814341913502
4.55847861,0.254719734191895,-0.105065107345581,0.352957546710968,0.447772095544768
4.56347861,0.331591606140137,-0.10284423828125,0.338923037052155,0.485179096473562
4.56847861,0.448062896728516,-0.106047749519348,0.334667891263962,0.56921795653856
4.57347861,0.568272590637207,-0.112747669219971,0.326680302619934,0.665105851954342
4.57847861,0.691119194030762,-0.117424845695496,0.350051313638687,0.783562541807935
4.58347861,0.800156593322754,-0.0994755029678345,0.391950637102127,0.896532905951222
4.58847861,0.840578079223633,-0.0875846147537231,0.38988384604454,0.930726590046364
4.59347861,0.865621566772461,-0.0910425186157227,0.400341510772705,0.958051544701681
4.59847861,0.859659194946289,-0.0893803834915161,0.384824633598328,0.946093432507001
4.60347861,0.828715324401856,-0.0799808502197266,0.373056054115295,0.912324966671644
4.60847861,0.754650115966797,-0.0677351951599121,0.373062014579773,0.844547287553734
4.61347861,0.623527526855469,-0.0411339998245239,0.327151596546173,0.705341583781058
4.61847861,0.492384910583496,-0.0302227735519409,0.283061891794205,0.568753330361769
4.62347861,0.371814727783203,-0.0176717042922974,0.242994517087936,0.444527632733772
4.62847861,0.293524742126465,-0.0217936038970947,0.196981310844421,0.354165741190784
4.63347861,0.255374908447266,-0.0355554819107056,0.155750066041946,0.301228516628859
4.63847861,0.254470825195313,-0.0360182523727417,0.114467099308968,0.281345752062793
4.64347861,0.263140678405762,-0.0639792680740356,0.0851794481277466,0.283887128553729
4.64847861,0.261322975158691,-0.0833830833435059,0.0536370575428009,0.27949842553315
4.65347861,0.283726692199707,-0.103058218955994,0.0268240869045258,0.303053401233562
4.65847861,0.309628486633301,-0.126523494720459,0.0168155431747437,0.334904101114584
4.66347861,0.325338363647461,-0.156377196311951,-0.00771364569664002,0.361051767364636
4.66847861,0.317122459411621,-0.162404894828796,-0.0302439033985138,0.357570549431027
4.67347861,0.272311210632324,-0.182050585746765,-0.0554148852825165,0.33221472080216
4.67847861,0.227556228637695,-0.195041418075562,-0.0430559813976288,0.302781785269276
4.68347861,0.165234565734863,-0.20607602596283,-0.0600772798061371,0.270885713427502
4.68847861,0.102171897888184,-0.232155203819275,-0.0630016624927521,0.261350999338616
4.69347861,0.0100679397583008,-0.22922945022583,-0.0657875239849091,0.238695417999337
4.69847861,-0.00256729125976563,-0.251543760299683,-0.05672487616539,0.257873158560746
4.70347861,-0.0930423736572266,-0.271915674209595,-0.0312930047512054,0.2890921467681
4.70847861,-0.320793151855469,-0.24385941028595,-0.0809295773506165,0.411005176065371
4.71347861,-0.633425712585449,-0.201198697090149,-0.140175372362137,0.679233526919882
4.71847861,-0.866487503051758,-0.172199010848999,-0.185416430234909,0.902680643906415
4.72347861,-0.961867332458496,-0.162530541419983,-0.22304829955101,1.00067751352656
4.72847861,-0.972908020019531,-0.151181578636169,-0.218520373106003,1.00854203610937
4.73347861,-0.936742782592773,-0.166926860809326,-0.243147313594818,0.98207547251099
4.73847861,-0.835768699645996,-0.189278721809387,-0.251117825508118,0.892970277291288
4.74347861,-0.661341667175293,-0.230240702629089,-0.243377655744553,0.741361089621681
4.74847861,-0.469374656677246,-0.255879282951355,-0.224561929702759,0.579840353930639
4.75347861,-0.245954513549805,-0.291721940040588,-0.218881517648697,0.439891386372548
4.75847861,-0.0771093368530273,-0.326886296272278,-0.231285512447357,0.407790986644577
4.76347861,0.0660543441772461,-0.334456086158752,-0.238027602434158,0.415789838107993
4.76847861,0.17591381072998,-0.333816409111023,-0.233925521373749,0.443959697886308
4.77347861,0.225171089172363,-0.33196747303009,-0.237919747829437,0.466379919117746
4.77847861,0.237758636474609,-0.322012186050415,-0.257838904857636,0.476132248478737
4.78347861,0.222836494445801,-0.303597211837769,-0.24627473950386,0.449976241161969
4.78847861,0.177272796630859,-0.285403490066528,-0.252570033073425,0.420324182238177
4.79347861,0.124255180358887,-0.258434772491455,-0.252036571502686,0.381772595734107
4.79847861,0.116167068481445,-0.242428541183472,-0.252510368824005,0.368819565293863
4.80347861,0.140130996704102,-0.242558479309082,-0.228529751300812,0.361520620921726
4.80847861,0.218535423278809,-0.24940812587738,-0.208253771066666,0.391576017708953
4.81347861,0.300920486450195,-0.247842669487,-0.172547996044159,0.426323748954617
4.81847861,0.38309383392334,-0.254035711288452,-0.149011820554733,0.483217912400761
4.82347861,0.423859596252441,-0.252810001373291,-0.137364268302917,0.512287806155917
4.82847861,0.464500427246094,-0.251803398132324,-0.121806174516678,0.542219828458142
4.83347861,0.487879753112793,-0.261998653411865,-0.0871191918849945,0.560588709734441
4.83847861,0.530483245849609,-0.257744193077087,-0.0653331279754639,0.59339106902881
4.84347861,0.545883178710938,-0.255875945091248,-0.0524718165397644,0.605156372854884
4.84847861,0.537727355957031,-0.243346095085144,-0.0323995351791382,0.591115691906036
4.85347861,0.519844055175781,-0.245915532112122,-0.00393018126487732,0.575089329548344
4.85847861,0.519602775573731,-0.236282229423523,0.010214626789093,0.570894626814542
4.86347861,0.511794090270996,-0.229027986526489,0.0203497409820557,0.561071404909153
4.86847861,0.506893157958984,-0.227161884307861,0.0664447546005249,0.559426582030077
4.87347861,0.467291831970215,-0.218788981437683,0.0780114233493805,0.521839110069008
4.87847861,0.406285285949707,-0.191198587417603,0.0790494829416275,0.455931413880488
4.88347861,0.326799392700195,-0.180090546607971,0.0965119153261185,0.385415357564654
4.88847861,0.245962142944336,-0.174344539642334,0.108789339661598,0.320512893171045
4.89347861,0.170339584350586,-0.156768441200256,0.109090134501457,0.255915172662026
4.89847861,0.097869873046875,-0.142066478729248,0.108321234583855,0.203702936381658
4.90347861,0.0218009948730469,-0.133716225624084,0.120089828968048,0.181043860415593
4.90847861,-0.0539913177490234,-0.117182493209839,0.119222283363342,0.175672285684222
4.91347861,-0.110078811645508,-0.0972194671630859,0.12774932384491,0.194650608300085
4.91847861,-0.123228073120117,-0.0947022438049316,0.120101794600487,0.19641312087751
4.92347861,-0.125896453857422,-0.0878596305847168,0.119767904281616,0.19471410497539
4.92847861,-0.128629684448242,-0.082433819770813,0.119279697537422,0.193826150474801
4.93347861,-0.144604682922363,-0.07896888256073,0.110225915908813,0.198233073108158
4.93847861,-0.172115325927734,-0.0707478523254395,0.114960864186287,0.21873487221367
4.94347861,-0.181382179260254,-0.0472085475921631,0.107819899916649,0.216225051131909
4.94847861,-0.191489219665527,-0.0439449548721314,0.11023660749197,0.225280691445505
4.95347861,-0.190183639526367,-0.033066987991333,0.132021248340607,0.233865030416534
4.95847861,-0.191905975341797,-0.0236369371414185,0.136855095624924,0.23688800173884
4.96347861,-0.213132858276367,-0.0160559415817261,0.134816706180573,0.25270329005082
4.96847861,-0.239865303039551,-0.00742912292480469,0.15326976776123,0.284749323404409
4.97347861,-0.239948272705078,0.0193653106689453,0.144113317131996,0.280568774111166
4.97847861,-0.246315002441406,0.0331665277481079,0.171678900718689,0.302067449326394
4.98347861,-0.271788597106934,0.0384386777877808,0.178664833307266,0.327517474538598
4.98847861,-0.292454719543457,0.0448813438415527,0.186108216643333,0.349543082195068
4.99347861,-0.320067405700684,0.0767742395401001,0.203657686710358,0.387057981968
4.99847861,-0.333362579345703,0.0949664115905762,0.191563189029694,0.396037478061909
5.00347861,-0.346676826477051,0.101810932159424,0.200370088219643,0.413156701720446
5.00847861,-0.347046852111816,0.114124059677124,0.199896231293678,0.416442459222549
5.01347861,-0.318072319030762,0.115848541259766,0.204355984926224,0.39541402759739
5.01847861,-0.257688522338867,0.114981889724731,0.181822687387466,0.335683927465495
5.02347861,-0.188955307006836,0.108323812484741,0.203039214015007,0.297763461198833
5.02847861,-0.101801872253418,0.118158340454102,0.187395006418228,0.243807102118983
5.03347861,-0.0218601226806641,0.106848955154419,0.17361581325531,0.205029302280204
5.03847861,0.0791416168212891,0.0983127355575562,0.174784272909164,0.215588338140733
5.04347861,0.17540454864502,0.0857011079788208,0.157048299908638,0.250550601871865
5.04847861,0.237465858459473,0.0818983316421509,0.114057749509811,0.275874139568944
5.05347861,0.271133422851563,0.0796785354614258,0.105679079890251,0.301711898881917
5.05847861,0.291035652160645,0.0934735536575317,0.085993193089962,0.317543517206298
5.06347861,0.294985771179199,0.100828647613525,0.0550762414932251,0.316569761276688
5.06847861,0.298754692077637,0.113917112350464,0.0283304899930954,0.320989238430077
5.07347861,0.295989990234375,0.125162839889526,0.0328644067049027,0.323041607283368
5.07847861,0.307394027709961,0.112866401672363,0.00638051331043243,0.327521944071423
5.08347861,0.309476852416992,0.121238946914673,-0.0239764004945755,0.333241162240777
5.08847861,0.333120346069336,0.12037718296051,-0.0234470218420029,0.354978300711637
5.09347861,0.358318328857422,0.11599862575531,-0.0357123017311096,0.378316103896239
5.09847861,0.388374328613281,0.107819676399231,-0.0323057323694229,0.40435548974705
5.10347861,0.406801223754883,0.108644127845764,-0.0448225885629654,0.423438126069585
5.10847861,0.424327850341797,0.0976618528366089,-0.0439561605453491,0.437634671986873
5.11347861,0.418228149414063,0.102210640907288,-0.044514387845993,0.432831758079619
5.11847861,0.36986255645752,0.0986791849136353,-0.0668078362941742,0.388586128412763
5.12347861,0.283915519714355,0.10178530216217,-0.0997092723846436,0.317663672884376
5.12847861,0.186272621154785,0.104945063591003,-0.122770130634308,0.246543020059297
5.13347861,0.0467967987060547,0.107927680015564,-0.178222745656967,0.213545478884909
5.13847861,-0.101298332214355,0.120454907417297,-0.207405984401703,0.260361247492708
5.14347861,-0.238124847412109,0.12644624710083,-0.251692265272141,0.368837488277352
5.14847861,-0.358882904052734,0.129877209663391,-0.283911496400833,0.475679268204778
5.15347861,-0.431289672851563,0.133368372917175,-0.316475540399551,0.551320843496934
5.15847861,-0.459874153137207,0.128472566604614,-0.349068909883499,0.591471504758171
5.16347861,-0.468501091003418,0.126829981803894,-0.385715514421463,0.619964172046404
5.16847861,-0.447111129760742,0.0880427360534668,-0.404446870088577,0.609292340713515
5.17347861,-0.410999298095703,0.0758013725280762,-0.414027154445648,0.588289686915096
5.17847861,-0.374210357666016,0.0741642713546753,-0.443031340837479,0.584645619067099
5.18347861,-0.34521484375,0.0643762350082398,-0.440040349960327,0.562985876885362
5.18847861,-0.328383445739746,0.0448848009109497,-0.45728611946106,0.5647662594742
5.19347861,-0.320252418518066,0.0540018081665039,-0.456200391054153,0.55999696753633
5.19847861,-0.309018135070801,0.0491249561309814,-0.448334157466888,0.546725695270536
5.20347861,-0.303130149841309,0.053006649017334,-0.463220536708832,0.556121262146737
5.20847861,-0.275696754455566,0.0537189245223999,-0.448980003595352,0.529601233852092
5.21347861,-0.229717254638672,0.0440850257873535,-0.460564374923706,0.516558854368274
5.21847861,-0.171405792236328,0.0409239530563355,-0.431947618722916,0.466512015779141
5.22347861,-0.124629020690918,0.0181175470352173,-0.41369703412056,0.432441758331799
5.22847861,-0.0508632659912109,0.00861239433288574,-0.413492947816849,0.416698527784422
5.23347861,-0.001312255859375,0.00200021266937256,-0.396840751171112,0.396847961637975
5.23847861,0.0552005767822266,-0.00612592697143555,-0.387605458498001,0.39156432691934
5.24347861,0.10753059387207,0.00192368030548096,-0.379162192344666,0.394119902146556
5.24847861,0.146234512329102,-0.00929951667785645,-0.369445979595184,0.39744351227013
5.25347861,0.177891731262207,-0.0163178443908691,-0.360844373703003,0.402641778917864
5.25847861,0.192384719848633,-0.0237531661987305,-0.362990230321884,0.41150698735846
5.26347861,0.220766067504883,-0.0242160558700562,-0.361094921827316,0.423926428160533
5.26847861,0.261494636535645,-0.0373761653900147,-0.372548162937164,0.456693065837469
5.27347861,0.30108642578125,-0.047458291053772,-0.355578035116196,0.468338621337774
5.27847861,0.35349178314209,-0.069969654083252,-0.347929000854492,0.500905962109765
5.28347861,0.410026550292969,-0.0951433181762695,-0.341691046953201,0.542150158633859
5.28847861,0.454018592834473,-0.102425813674927,-0.312831372022629,0.560791759272482
5.29347861,0.47948169708252,-0.126875400543213,-0.293614983558655,0.576376460024421
5.29847861,0.465099334716797,-0.147400736808777,-0.264360904693604,0.554915359578556
5.30347861,0.438211441040039,-0.160388708114624,-0.249061644077301,0.528947546831965
5.30847861,0.413676261901855,-0.157403707504272,-0.227448672056198,0.497631264308535
5.31347861,0.329882621765137,-0.18305504322052,-0.233495950698853,0.443680123494244
5.31847861,0.274936676025391,-0.181633949279785,-0.215213745832443,0.393570862425172
5.32347861,0.199418067932129,-0.196559071540833,-0.187152117490768,0.336792145846746
5.32847861,0.156383514404297,-0.198715806007385,-0.162843286991119,0.300768534346058
5.33347861,0.127707481384277,-0.217111468315125,-0.156947761774063,0.296781384863257
5.33847861,0.103687286376953,-0.228148698806763,-0.145143300294876,0.289602244024323
5.34347861,0.0655174255371094,-0.242092847824097,-0.117719531059265,0.27705481047873
5.34847861,0.0278387069702148,-0.261691570281982,-0.101879507303238,0.282200116177818
5.35347861,0.00713729858398438,-0.25905179977417,-0.0719687342643738,0.268957756365065
5.35847861,-0.0124330520629883,-0.268875360488892,-0.0594657361507416,0.275653249640889
5.36347861,-0.0433235168457031,-0.288963317871094,-0.055352658033371,0.297389715589342
5.36847861,-0.0478029251098633,-0.29601001739502,-0.0280185341835022,0.301151271465108
5.37347861,-0.0828170776367188,-0.294079422950745,-0.0191420614719391,0.306117287765204
5.37847861,-0.10533618927002,-0.302963376045227,-0.0216531455516815,0.321483092412235
5.38347861,-0.117221832275391,-0.301317691802979,-0.0155611932277679,0.323690376888388
5.38847861,-0.14130973815918,-0.30304229259491,0.0071488618850708,0.334446078503018
5.39347861,-0.157890319824219,-0.308597207069397,0.0175102353096008,0.347085288719969
5.39847861,-0.208510398864746,-0.325157642364502,0.0397183001041412,0.388306093418503
5.40347861,-0.204564094543457,-0.315483808517456,0.0304643213748932,0.377232788990957
5.40847861,-0.182684898376465,-0.305619955062866,0.0360219776630402,0.357875553652669
5.41347861,-0.279319763183594,-0.315810918807983,0.0499829053878784,0.424563725928506
5.41847861,-0.323284149169922,-0.310245633125305,0.0848056524991989,0.456023017701581
5.42347861,-0.31696605682373,-0.299191474914551,0.109609335660934,0.449441015377947
5.42847861,-0.306504249572754,-0.287414193153381,0.123023942112923,0.437820355585679
5.43347861,-0.268180847167969,-0.274790644645691,0.140699952840805,0.408934398041946
5.43847861,-0.230361938476563,-0.282239198684692,0.178664684295654,0.405766752441994
5.44347861,-0.164096832275391,-0.264074087142944,0.210048094391823,0.375210735215336
5.44847861,-0.127071380615234,-0.258989810943604,0.242158025503159,0.37664753717455
5.45347861,-0.0609426498413086,-0.254186987876892,0.27414482831955,0.378788091510231
5.45847861,-0.0162458419799805,-0.221165418624878,0.308085680007935,0.379598282402736
5.46347861,0.0431146621704102,-0.207489252090454,0.33232644200325,0.394146581720131
5.46847861,0.0989303588867188,-0.190614342689514,0.337819218635559,0.400303469917449
5.47347861,0.143398284912109,-0.16843843460083,0.364422351121902,0.42630766397489
5.47847861,0.182149887084961,-0.145873427391052,0.389354825019836,0.453932613886802
5.48347861,0.266569137573242,-0.132813930511475,0.416283994913101,0.511850573571291
5.48847861,0.299831390380859,-0.113414645195007,0.43628066778183,0.541389476701005
5.49347861,0.322207450866699,-0.0876717567443848,0.432737410068512,0.54659458870123
5.49847861,0.334939956665039,-0.0494554042816162,0.407026678323746,0.529434914272471
5.50347861,0.23521614074707,-0.0410236120223999,0.379427671432495,0.448302272423412
5.50847861,0.163873672485352,-0.0463825464248657,0.369314253330231,0.406692683557938
5.51347861,0.10442066192627,-0.0405377149581909,0.357831001281738,0.374953339029596
5.51847861,0.0672273635864258,-0.0378469228744507,0.349862217903137,0.358267329660337
5.52347861,0.114421844482422,-0.0617746114730835,0.320641338825226,0.346004811066325
5.52847861,0.104730606079102,-0.0810755491256714,0.301902711391449,0.329677102118472
5.53347861,0.0909128189086914,-0.0947345495223999,0.289644241333008,0.318015034318364
5.53847861,0.0582113265991211,-0.106986165046692,0.279831767082214,0.305189147782457
5.54347861,0.0324792861938477,-0.116525769233704,0.249661415815353,0.277423830040058
5.54847861,0.0155391693115234,-0.13056468963623,0.205133080482483,0.243655873458717
5.55347861,0.000973701477050781,-0.143293738365173,0.198114693164825,0.244506595405985
5.55847861,-0.00479888916015625,-0.151146411895752,0.184556111693382,0.238598460869956
5.56347861,-0.0455751419067383,-0.150300264358521,0.175396785140038,0.235438516949799
5.56847861,-0.0888099670410156,-0.140930414199829,0.17784571647644,0.243675379883525
5.57347861,-0.114162445068359,-0.144789814949036,0.160008355975151,0.244130760779613
5.57847861,-0.173140525817871,-0.127138733863831,0.149131655693054,0.261499808907652
5.58347861,-0.197567939758301,-0.118295073509216,0.136995047330856,0.267944879089103
5.58847861,-0.209292411804199,-0.111915349960327,0.146873503923416,0.279106046782048
5.59347861,-0.209903717041016,-0.100619912147522,0.13539519906044,0.269287573194208
5.59847861,-0.220592498779297,-0.0816189050674439,0.139892101287842,0.273664934152752
5.60347861,-0.230439186096191,-0.0898747444152832,0.149786591529846,0.289163813736291
5.60847861,-0.230208396911621,-0.0786128044128418,0.152567923069,0.287146043287834
5.61347861,-0.24307918548584,-0.0753021240234375,0.158860385417938,0.299990870451146
5.61847861,-0.245100021362305,-0.0802268981933594,0.147467911243439,0.297081067239285
5.62347861,-0.23692798614502,-0.0813156366348267,0.132378816604614,0.283321821372269
5.62847861,-0.2098388671875,-0.0697431564331055,0.110261648893356,0.247091256964846
5.63347861,-0.210901260375977,-0.0649904012680054,0.0996242165565491,0.242132357213277
5.63847861,-0.172905921936035,-0.0603554248809814,0.100776255130768,0.209033702429287
5.64347861,-0.144139289855957,-0.0677484273910523,0.0918950736522675,0.183876830665791
5.64847861,-0.0941991806030273,-0.0634630918502808,0.0827045142650604,0.14050297624356
5.65347861,-0.0530996322631836,-0.0657395124435425,0.0703165233135223,0.109934834759966
5.65847861,-0.0451440811157227,-0.0703775882720947,0.0671385526657105,0.107231423775057
5.66347861,-0.0438594818115234,-0.0543249845504761,0.0784633755683899,0.105030278476119
5.66847861,-0.070866584777832,-0.0305687189102173,0.0759794116020203,0.108302310230552
5.67347861,-0.0979547500610352,-0.0227646827697754,0.055828869342804,0.115022721638919
5.67847861,-0.110505104064941,-0.0142282247543335,0.0496433675289154,0.1219765729297
5.68347861,-0.122989654541016,0.00690257549285889,0.0565075874328613,0.135525673250626
5.68847861,-0.137777328491211,0.0244108438491821,0.075193852186203,0.158847716225965
5.69347861,-0.109255790710449,0.0430067777633667,0.0794938802719116,0.141794526474184
5.69847861,-0.0690584182739258,0.0477614402770996,0.0802077353000641,0.116118478778378
5.70347861,-0.00274562835693359,0.0778270959854126,0.0944357812404633,0.12240388932993
5.70847861,0.0665931701660156,0.0763390064239502,0.113957911729813,0.152475243434387
5.71347861,0.141325950622559,0.081079363822937,0.141313672065735,0.215676705904936
5.71847861,0.221439361572266,0.0921862125396729,0.146579593420029,0.281103656758718
5.72347861,0.280142784118652,0.111100792884827,0.143235564231873,0.333676179153097
5.72847861,0.354426383972168,0.116905808448792,0.170768827199936,0.410422979434502
5.73347861,0.40038013458252,0.123647093772888,0.175354152917862,0.454248758845127
5.73847861,0.446841239929199,0.119933724403381,0.180404096841812,0.496585169037538
5.74347861,0.482404708862305,0.129370331764221,0.196823835372925,0.536833873786126
5.74847861,0.494833946228027,0.133129835128784,0.16884246468544,0.539529392361597
5.75347861,0.501979827880859,0.134776890277863,0.167540043592453,0.546093603660791
5.75847861,0.49059009552002,0.141248822212219,0.181143254041672,0.541703562923013
5.76347861,0.469646453857422,0.15091747045517,0.177361637353897,0.524214674455317
5.76847861,0.442815780639648,0.144783616065979,0.173470586538315,0.497131929630947
5.77347861,0.401883125305176,0.139214336872101,0.161305397748947,0.454873729004809
5.77847861,0.365588188171387,0.142690002918243,0.120922386646271,0.410654823246332
5.78347861,0.28082275390625,0.145727574825287,0.146192729473114,0.34852583738763
5.78847861,0.262453079223633,0.144220650196075,0.139276266098022,0.33027124161082
5.79347861,0.192363739013672,0.146981000900269,0.129897862672806,0.274737470032626
5.79847861,0.133862495422363,0.155237972736359,0.117717653512955,0.236379867604229
5.80347861,0.0619697570800781,0.168850123882294,0.128394931554794,0.220988401452633
5.80847861,-0.000581741333007813,0.182161211967468,0.119590103626251,0.21791016142845
5.81347861,-0.0717611312866211,0.201763451099396,0.11692202091217,0.243985469110888
5.81847861,-0.148167610168457,0.23011577129364,0.113431960344315,0.296266296646535
5.82347861,-0.204822540283203,0.238641679286957,0.120922535657883,0.336933797252361
5.82847861,-0.260501861572266,0.256034433841705,0.131266266107559,0.388131013722273
5.83347861,-0.31474781036377,0.285631895065308,0.130181759595871,0.444521151508973
5.83847861,-0.366750717163086,0.300207197666168,0.14582633972168,0.495878787030494
5.84347861,-0.40888500213623,0.333203017711639,0.137546360492706,0.545096502712022
5.84847861,-0.467117309570313,0.344871282577515,0.135865390300751,0.596317186343344
5.85347861,-0.530490875244141,0.371890127658844,0.138061106204987,0.662407506610508
5.85847861,-0.554888725280762,0.393055498600006,0.133437395095825,0.692964400841318
5.86347861,-0.558784484863281,0.416582882404327,0.113531082868576,0.706166202259448
5.86847861,-0.540815353393555,0.418221235275269,0.109814196825027,0.692422851966696
5.87347861,-0.509880065917969,0.440347671508789,0.0953730344772339,0.680426167287179
5.87847861,-0.445457458496094,0.453308761119843,0.08872190117836,0.641710804012608
5.88347861,-0.369463920593262,0.466683685779572,0.0974023044109345,0.603145471754129
5.88847861,-0.284906387329102,0.463252663612366,0.100694239139557,0.553094937312543
5.89347861,-0.185952186584473,0.472689986228943,0.096017062664032,0.516946143325679
5.89847861,-0.094024658203125,0.491425693035126,0.0888482332229614,0.508167154263349
5.90347861,-0.0354061126708984,0.48905074596405,0.106071561574936,0.501672603514886
5.90847861,0.0336484909057617,0.524531245231628,0.106319904327393,0.536254762422362
5.91347861,0.101325988769531,0.530847489833832,0.101495712995529,0.549879435166905
5.91847861,0.168269157409668,0.549982130527496,0.110186129808426,0.585607237350328
5.92347861,0.207521438598633,0.574644207954407,0.113811880350113,0.621477479336478
5.92847861,0.296080589294434,0.586148083209992,0.11309415102005,0.666350941923722
5.93347861,0.367748260498047,0.585513114929199,0.114022821187973,0.700760725643994
5.93847861,0.467387199401855,0.597798883914948,0.12114030122757,0.768432997961548
5.94347861,0.555283546447754,0.590468883514404,0.134110301733017,0.821570990472073
5.94847861,0.630640029907227,0.58559662103653,0.136159688234329,0.871303454940274
5.95347861,0.701295852661133,0.590944528579712,0.116086930036545,0.924395740007121
5.95847861,0.738819122314453,0.589048027992249,0.125016182661057,0.953131848542581
5.96347861,0.75103759765625,0.571792185306549,0.12963593006134,0.95279024482505
5.96847861,0.728894233703613,0.577023684978485,0.129071563482285,0.938564118988303
5.97347861,0.675811767578125,0.573725938796997,0.0925475060939789,0.891318146864396
5.97847861,0.602398872375488,0.582754552364349,0.0550386905670166,0.839950312339941
5.98347861,0.506242752075195,0.586060345172882,0.0528444349765778,0.776235136102985
5.98847861,0.427253723144531,0.588628768920898,0.0264342427253723,0.72782438866162
5.99347861,0.333234786987305,0.589039504528046,-0.0101215243339539,0.676842231548802
5.99847861,0.251527786254883,0.569559872150421,-0.0287982821464539,0.623292881618965
6.00347861,0.174942016601563,0.564010739326477,-0.0447278022766113,0.592210604046159
6.00847861,0.0899887084960938,0.546323180198669,-0.0682197213172913,0.557871773130521
6.01347861,-0.000178337097167969,0.548217535018921,-0.0801735520362854,0.554049001400108
6.01847861,-0.103001594543457,0.535278677940369,-0.0978329181671143,0.553808515114364
6.02347861,-0.191176414489746,0.517799139022827,-0.119163393974304,0.564680692332766
6.02847861,-0.269180297851563,0.503021240234375,-0.105763018131256,0.580236345709761
6.03347861,-0.355205535888672,0.488595068454742,-0.108641266822815,0.613758127034681
6.03847861,-0.456742286682129,0.474060297012329,-0.123355507850647,0.669748656560152
6.04347861,-0.564725875854492,0.466413378715515,-0.13681572675705,0.745100864173775
6.04847861,-0.637945175170898,0.460305035114288,-0.120441913604736,0.795839824605533
6.05347861,-0.689620971679688,0.445386409759522,-0.144858479499817,0.833624686331872
6.05847861,-0.709297180175781,0.437649786472321,-0.13091242313385,0.84366930010245
6.06347861,-0.692023277282715,0.42256760597229,-0.12553733587265,0.820499372709245
6.06847861,-0.658564567565918,0.408224284648895,-0.128296673297882,0.78537531958274
6.07347861,-0.597356796264648,0.396188139915466,-0.117570042610168,0.726376554668857
6.07847861,-0.52508544921875,0.363394856452942,-0.105182528495789,0.647173790398281
6.08347861,-0.450302124023438,0.347984373569489,-0.0888969898223877,0.575992883591499
6.08847861,-0.390403747558594,0.346299886703491,-0.0810064673423767,0.528110542774841
6.09347861,-0.321019172668457,0.349957525730133,-0.0722132325172424,0.480352297784123
6.09847861,-0.263752937316895,0.339787721633911,-0.0472322702407837,0.432726466799238
6.10347861,-0.184493064880371,0.335715651512146,-0.0428183078765869,0.385455700630555
6.10847861,-0.0936813354492188,0.324119448661804,-0.0326949954032898,0.338966919236674
6.11347861,-0.0266695022583008,0.316916465759277,-0.014129638671875,0.318350365649318
6.11847861,0.0490379333496094,0.299489855766296,0.00490307807922363,0.303517598812274
6.12347861,0.123666763305664,0.282148361206055,0.0148200392723084,0.308416600788275
6.12847861,0.185371398925781,0.27821946144104,0.0438530445098877,0.337182018762908
6.13347861,0.243137359619141,0.257553935050964,0.0621718168258667,0.359604143344084
6.13847861,0.284651756286621,0.234200417995453,0.0756207406520844,0.376291050336136
6.14347861,0.317808151245117,0.216394662857056,0.0811347961425781,0.392952320588587
6.14847861,0.330962181091309,0.201739549636841,0.0931628942489624,0.398640359303012
6.15347861,0.331198692321777,0.178164005279541,0.114279836416245,0.393058351373212
6.15847861,0.318120956420898,0.150094866752625,0.12399634718895,0.372967164849451
6.16347861,0.322484970092773,0.129121482372284,0.131817311048508,0.371543694116603
6.16847861,0.303201675415039,0.111208260059357,0.143646776676178,0.35345852589713
6.17347861,0.303099632263184,0.0816702842712402,0.14503026008606,0.345793578239464
6.17847861,0.287274360656738,0.0752894878387451,0.144274443387985,0.330166897620993
6.18347861,0.313080787658691,0.0514435768127441,0.151829183101654,0.351735869705651
6.18847861,0.358441352844238,0.022193431854248,0.15667325258255,0.39181533905792
6.19347861,0.394630432128906,0.0120145082473755,0.170871049165726,0.43020279149916
6.19847861,0.413597106933594,-0.00764119625091553,0.183959513902664,0.452727354485333
6.20347861,0.420510292053223,-0.0347869396209717,0.193082302808762,0.464025659364667
6.20847861,0.426403999328613,-0.0580331087112427,0.200267449021339,0.47465278202876
6.21347861,0.392189025878906,-0.0718422532081604,0.20301578938961,0.447424800505468
6.21847861,0.332891464233398,-0.0783277153968811,0.229212671518326,0.41169212616143
6.22347861,0.281660079956055,-0.0950645804405212,0.238905563950539,0.381373233960786
6.22847861,0.191494941711426,-0.0912975072860718,0.216126531362534,0.30284686740416
6.23347861,0.102781295776367,-0.0926234126091003,0.209577143192291,0.251128792203258
6.23847861,0.0129890441894531,-0.109887778759003,0.225003764033318,0.250740369742696
6.24347861,-0.06683349609375,-0.132469713687897,0.215607017278671,0.261727581932955
6.24847861,-0.130965232849121,-0.146158516407013,0.209436520934105,0.287015435881949
6.25347861,-0.159668922424316,-0.176745355129242,0.20143136382103,0.311941788926563
6.25847861,-0.174488067626953,-0.193351447582245,0.181918174028397,0.317687094588628
6.26347861,-0.155381202697754,-0.211993038654327,0.191214874386787,0.325034605506015
6.26847861,-0.134915351867676,-0.242485165596008,0.192628800868988,0.337797369184437
6.27347861,-0.144640922546387,-0.277258992195129,0.174943760037422,0.3583278727704
6.27847861,-0.102410316467285,-0.283166885375977,0.177006334066391,0.349288706075767
6.28347861,-0.125914573669434,-0.299020409584045,0.134385302662849,0.351179576259712
6.28847861,-0.12159252166748,-0.325817048549652,0.139551177620888,0.374721258572875
6.29347861,-0.149165153503418,-0.344044625759125,0.119729459285736,0.393639544449347
6.29847861,-0.178114891052246,-0.342785060405731,0.0915502607822418,0.396998693072422
6.30347861,-0.187813758850098,-0.351621508598328,0.0747788697481155,0.405590400136852
6.30847861,-0.12397575378418,-0.33635801076889,0.0683276951313019,0.364932011279795
6.31347861,-0.130529403686523,-0.35550057888031,0.0638186633586884,0.384046102185512
6.31847861,-0.143234252929688,-0.357547461986542,0.0667904615402222,0.390918411613087
6.32347861,-0.107986450195313,-0.356309533119202,0.065975159406662,0.378114107745456
6.32847861,-0.0905961990356445,-0.356551647186279,0.0781795978546143,0.376096793274902
6.33347861,-0.0586919784545898,-0.373517334461212,0.0876225680112839,0.3881206795609
6.33847861,-0.0802011489868164,-0.365088582038879,0.0843895375728607,0.383201632415268
6.34347861,-0.0555295944213867,-0.373628914356232,0.0990619659423828,0.390506561527447
6.34847861,-0.0430259704589844,-0.364378690719605,0.104737147688866,0.381566422121326
6.35347861,-0.0381393432617188,-0.358935534954071,0.104891210794449,0.37588760801485
6.35847861,-0.0337686538696289,-0.356305181980133,0.108033210039139,0.373851413213088
6.36347861,-0.0211782455444336,-0.359682142734528,0.0977835953235626,0.37333817565425
6.36847861,-0.000772476196289063,-0.364409923553467,0.0885026752948761,0.375003883497315
6.37347861,0.0100231170654297,-0.347592830657959,0.0699301660060883,0.354699121676611
6.37847861,0.0223712921142578,-0.355878710746765,0.0539571046829224,0.360640403476101
6.38347861,0.0506887435913086,-0.344723284244537,0.024190217256546,0.349268747582896
6.38847861,0.0911998748779297,-0.359129786491394,0.000556349754333496,0.370529256939521
6.39347861,0.137149810791016,-0.356091499328613,-0.000744372606277466,0.381591117014912
6.39847861,0.175883293151855,-0.358400285243988,-0.013969212770462,0.399475701611925
6.40347861,0.200193405151367,-0.36520904302597,-0.024468332529068,0.417197487852932
6.40847861,0.211610794067383,-0.352486252784729,-0.0449309945106506,0.413575242048849
6.41347861,0.197605133056641,-0.34063720703125,-0.0802611708641052,0.401899677746649
6.41847861,0.179207801818848,-0.333676755428314,-0.0824924409389496,0.387634642618506
6.42347861,0.143089294433594,-0.328105688095093,-0.076990008354187,0.366135699062842
6.42847861,0.11679744720459,-0.316012978553772,-0.0886841714382172,0.348383019895659
6.43347861,0.0824508666992188,-0.319980561733246,-0.0985176265239716,0.344806363111954
6.43847861,0.0484113693237305,-0.303683757781982,-0.115411967039108,0.3284621858848
6.44347861,0.0199260711669922,-0.2862508893013,-0.125781327486038,0.313301072902866
6.44847861,-0.00246047973632813,-0.282169580459595,-0.119573384523392,0.30646944445353
6.45347861,-0.0288829803466797,-0.271687090396881,-0.126542150974274,0.301099680529929
6.45847861,-0.0266809463500977,-0.276675701141357,-0.135710567235947,0.30931969636559
6.46347861,-0.0241680145263672,-0.26908141374588,-0.147780656814575,0.307941589718205
6.46847861,0.00171470642089844,-0.267994523048401,-0.153225898742676,0.308710512693608
6.47347861,0.0237894058227539,-0.273322880268097,-0.168083727359772,0.321750636534883
6.47847861,0.0676088333129883,-0.277854382991791,-0.167562425136566,0.331438046710603
6.48347861,0.104094505310059,-0.275796473026276,-0.172603040933609,0.34160089330827
6.48847861,0.135881423950195,-0.295518457889557,-0.190846055746079,0.377116874883623
6.49347861,0.157173156738281,-0.286913275718689,-0.184142559766769,0.375407926528148
6.49847861,0.162137985229492,-0.284183263778687,-0.183572351932526,0.375163513764631
6.50347861,0.147387504577637,-0.273192226886749,-0.207769125699997,0.373530559567896
6.50847861,0.130019187927246,-0.247482538223267,-0.197967737913132,0.34255484408943
6.51347861,0.0937252044677734,-0.2332484126091,-0.216782599687576,0.331939650334959
6.51847861,0.0449304580688477,-0.213936865329742,-0.193319290876389,0.291821994774799
6.52347861,0.0112934112548828,-0.213259041309357,-0.190723448991776,0.286325677914637
6.52847861,0.00121974945068359,-0.204512357711792,-0.196847289800644,0.283858499515898
6.53347861,0.0073394775390625,-0.180644810199738,-0.214886397123337,0.280824819151182
6.53847861,0.0336027145385742,-0.183157742023468,-0.195296317338943,0.269845423258668
6.54347861,0.0623311996459961,-0.174761712551117,-0.1708624958992,0.252231693345647
6.54847861,0.0595245361328125,-0.162180483341217,-0.1616091132164,0.236565392763203
6.55347861,0.0690240859985352,-0.155676126480103,-0.156651526689529,0.231385136985811
6.55847861,0.0632171630859375,-0.144103586673737,-0.143678516149521,0.213086295673366
6.56347861,0.0378808975219727,-0.15281343460083,-0.15562430024147,0.221372606745324
6.56847861,-0.0204639434814453,-0.15330570936203,-0.157870978116989,0.221008278662637
6.57347861,-0.0965499877929688,-0.148532032966614,-0.141922831535339,0.226992852466825
6.57847861,-0.152410507202148,-0.131345927715302,-0.114412546157837,0.231453982794266
6.58347861,-0.212479591369629,-0.119782030582428,-0.131392180919647,0.277054537602032
6.58847861,-0.266914367675781,-0.110093832015991,-0.131726801395416,0.317357655848405
6.59347861,-0.308523178100586,-0.0716104507446289,-0.126757770776749,0.341148267668803
6.59847861,-0.309194564819336,-0.0578770041465759,-0.106305450201035,0.332041978167288
6.60347861,-0.276405334472656,-0.0334405303001404,-0.108414530754089,0.298784016423779
6.60847861,-0.219403266906738,-0.0108497142791748,-0.0871424078941345,0.236324584169478
6.61347861,-0.170730590820313,0.0146462917327881,-0.0894918441772461,0.19331900754354
6.61847861,-0.133196830749512,0.042669415473938,-0.0779037475585938,0.160097060005094
6.62347861,-0.101738929748535,0.0607237219810486,-0.0655397772789002,0.135401782275481
6.62847861,-0.0491971969604492,0.0720541477203369,-0.0231752693653107,0.0902732380200471
6.63347861,0.00724697113037109,0.0674691796302795,-0.0163004100322723,0.0697876218090828
6.63847861,0.0577363967895508,0.0852156281471252,0.00767484307289124,0.103218690221021
6.64347861,0.100849151611328,0.102826833724976,0.0298488736152649,0.147087947741236
6.64847861,0.128299713134766,0.105014324188232,0.044670432806015,0.171709848996064
6.65347861,0.155511856079102,0.121954441070557,0.0586599409580231,0.206149973929656
6.65847861,0.170016288757324,0.123979449272156,0.0700770914554596,0.221781967327143
6.66347861,0.189264297485352,0.149827241897583,0.101135328412056,0.261720330448888
6.66847861,0.184085845947266,0.144411265850067,0.101822823286057,0.255166807646454
6.67347861,0.164505958557129,0.156729996204376,0.107567846775055,0.251390818787889
6.67847861,0.152525901794434,0.144801557064056,0.105403393507004,0.235247777904856
6.68347861,0.140636444091797,0.140404284000397,0.106550976634026,0.225488542933147
6.68847861,0.12883472442627,0.123131632804871,0.109293878078461,0.209057257708542
6.69347861,0.122832298278809,0.127345681190491,0.12595634162426,0.217185855924578
6.69847861,0.124443054199219,0.116422593593597,0.113312348723412,0.204645992901659
6.70347861,0.103103637695313,0.113379418849945,0.124752253293991,0.197606622932243
6.70847861,0.0501651763916016,0.097197413444519,0.120380565524101,0.162651045673269
6.71347861,-0.0376558303833008,0.0717196464538574,0.0962792485952377,0.125822744205433
6.71847861,-0.13671875,0.0646102428436279,0.0721617192029953,0.167552421051464
6.72347861,-0.231489181518555,0.0592178702354431,0.05088309943676,0.24430122210837
6.72847861,-0.338244438171387,0.0634487271308899,0.0055818110704422,0.344189188591439
6.73347861,-0.414163589477539,0.0649532675743103,-0.0277636647224426,0.420144292947458
6.73847861,-0.45118236541748,0.0477345585823059,-0.0581020712852478,0.45740569042634
6.74347861,-0.436301231384277,0.0306760668754578,-0.0833155661821365,0.445242932739683
6.74847861,-0.387941360473633,0.029256284236908,-0.106104180216789,0.403252435073814
6.75347861,-0.319872856140137,0.0191179513931274,-0.120225086808205,0.342254600639289
6.75847861,-0.25365161895752,0.0155733227729797,-0.133883267641068,0.287239275754922
6.76347861,-0.171317100524902,0.0157445669174194,-0.147826179862022,0.226825968028962
6.76847861,-0.100422859191895,0.0117414593696594,-0.144620537757874,0.176458812355124
6.77347861,-0.0463752746582031,0.00260019302368164,-0.163031846284866,0.16951934994695
6.77847861,-0.00637149810791016,-0.00110161304473877,-0.17755463719368,0.177672335292861
6.78347861,0.0142478942871094,-0.00705927610397339,-0.170483693480492,0.171223612896934
6.78847861,0.0107240676879883,-0.000516235828399658,-0.164784073829651,0.165133470608181
6.79347861,-0.0107688903808594,0.000476062297821045,-0.171305954456329,0.171644765919443
6.79847861,-0.0283050537109375,-0.000373303890228272,-0.184312105178833,0.18647323544366
6.80347861,-0.0275468826293945,0.00954335927963257,-0.197686046361923,0.199824121104401
6.80847861,-0.0213460922241211,-0.00151056051254272,-0.197695165872574,0.198849983796045
6.81347861,-0.00915431976318359,0.0120432376861572,-0.197080224752426,0.197659950755733
6.81847861,0.0203571319580078,-0.00332188606262207,-0.236244976520538,0.237143704701935
6.82347861,0.0720405578613281,-0.0140785574913025,-0.254618853330612,0.264988317156442
6.82847861,0.129665374755859,-0.008952796459198,-0.27022123336792,0.299854592991165
6.83347861,0.17734432220459,0.0034908652305603,-0.297493934631348,0.346360846373697
6.83847861,0.23401927947998,-0.00291293859481812,-0.316740721464157,0.393825079208043
6.84347861,0.254748344421387,-0.0111054182052612,-0.335928231477737,0.421743791895876
6.84847861,0.281710624694824,-0.010656476020813,-0.360934466123581,0.457982669304249
6.85347861,0.300142288208008,-0.00669139623641968,-0.382575333118439,0.486306542691969
6.85847861,0.306206703186035,-0.0148864388465881,-0.403318047523499,0.506605959889697
6.86347861,0.261659622192383,-0.02299964427948,-0.406641900539398,0.484099552568619
6.86847861,0.236025810241699,-0.0203842520713806,-0.419799387454987,0.482032391588306
6.87347861,0.166298866271973,-0.0528263449668884,-0.439898163080215,0.473240245041831
6.87847861,0.0925445556640625,-0.0594372153282166,-0.452555179595947,0.465728964021083
6.88347861,0.0143022537231445,-0.0682983994483948,-0.457454830408096,0.462746310295905
6.88847861,-0.0625619888305664,-0.0789141654968262,-0.481503784656525,0.49192208997061
6.89347861,-0.138587951660156,-0.0797240138053894,-0.487055480480194,0.512626159875198
6.89847861,-0.189558982849121,-0.0935956239700317,-0.475480526685715,0.520359952400699
6.90347861,-0.212850570678711,-0.104805171489716,-0.47933641076088,0.534839119820497
6.90847861,-0.222440719604492,-0.107186555862427,-0.473975777626038,0.534436029167215
6.91347861,-0.221354484558105,-0.115452289581299,-0.49757444858551,0.556693246670663
6.91847861,-0.191389083862305,-0.129414141178131,-0.500079154968262,0.550869279042039
6.92347861,-0.138431549072266,-0.131080150604248,-0.496800571680069,0.532124146870467
6.92847861,-0.0783424377441406,-0.137265264987946,-0.491519570350647,0.516304927888152
6.93347861,-0.0425786972045898,-0.134521722793579,-0.487671583890915,0.507673727007481
6.93847861,-0.0261716842651367,-0.151536524295807,-0.466753125190735,0.491433367943453
6.94347861,-0.0234336853027344,-0.155377864837646,-0.463581562042236,0.489488797781822
6.94847861,-0.0413150787353516,-0.148939728736877,-0.453411489725113,0.479032313671916
6.95347861,-0.0689516067504883,-0.164484143257141,-0.447304159402847,0.481549964671993
6.95847861,-0.111019134521484,-0.147703528404236,-0.427734702825546,0.46593836130353
6.96347861,-0.141120910644531,-0.159328162670136,-0.421022653579712,0.471763340742247
6.96847861,-0.154152870178223,-0.158008754253387,-0.395905494689941,0.453289129067286
6.97347861,-0.147378921508789,-0.172699213027954,-0.366790115833282,0.431370552725335
6.97847861,-0.105931282043457,-0.17007702589035,-0.349799811840057,0.403122239047186
6.98347861,-0.0273656845092773,-0.181402027606964,-0.325254321098328,0.373424623855622
6.98847861,0.0179738998413086,-0.205929756164551,-0.31037175655365,0.37290850461701
6.99347861,0.0928478240966797,-0.202228009700775,-0.290278285741806,0.365757254911268
6.99847861,0.141921043395996,-0.217033088207245,-0.268621474504471,0.37336636230429
7.00347861,0.172845840454102,-0.23376852273941,-0.256676524877548,0.387822440311627
7.00847861,0.180489540100098,-0.236184179782867,-0.2199886739254,0.369803268672285
7.01347861,0.189118385314941,-0.215646386146545,-0.201460361480713,0.350507353375268
7.01847861,0.193276405334473,-0.243398368358612,-0.184378087520599,0.361377660815391
7.02347861,0.20307445526123,-0.254017472267151,-0.157003581523895,0.361129111548721
