Time (s),Linear Acceleration x (m/s^2),Linear Acceleration y (m/s^2),Linear Acceleration z (m/s^2),Absolute acceleration (m/s^2)
0.016968235,0.0795955657958984,-0.00274717807769775,-0.00609436631202698,0.0798757934702683
0.021968235,0.134995460510254,-0.00176823139190674,-0.00845152139663696,0.135271317043003
0.026968235,0.174238204956055,0.0186190605163574,-0.00713086128234863,0.175375228192148
0.031968235,0.18963623046875,0.00979924201965332,-0.0244630724191666,0.191458525437605
0.036968235,0.189929962158203,0.0253936052322388,-0.0310049653053284,0.194112167536432
0.041968235,0.169514656066895,0.0302513837814331,-0.0659773647785187,0.184400047465522
0.046968235,0.121570587158203,0.0450800657272339,-0.0817167013883591,0.153261995529734
0.051968235,0.0502738952636719,0.0570888519287109,-0.109849527478218,0.133617065701611
0.056968235,-0.0265483856201172,0.0806087255477905,-0.123099803924561,0.149519714886495
0.061968235,-0.0616884231567383,0.0984450578689575,-0.17055156826973,0.206360675540791
0.066968235,-0.0973844528198242,0.0950413942337036,-0.209978878498077,0.250215362606322
0.071968235,-0.130800247192383,0.0958144664764404,-0.215918719768524,0.270018536767815
0.076968235,-0.134690284729004,0.0985009670257568,-0.23148050904274,0.285354410114993
0.081968235,-0.111700057983398,0.10389506816864,-0.237314879894257,0.282116005151226
0.086968235,-0.0835466384887695,0.101441502571106,-0.217619478702545,0.254221668544254
0.091968235,-0.0662336349487305,0.108947396278381,-0.218841195106506,0.253274353676017
0.096968235,-0.0495414733886719,0.107014298439026,-0.232279092073441,0.260499509155736
0.101968235,-0.074925422668457,0.126929759979248,-0.249544143676758,0.289822812376464
0.106968235,-0.104928016662598,0.145947217941284,-0.254768550395966,0.311797199115721
0.111968235,-0.184000015258789,0.194834113121033,-0.272565245628357,0.382240958526609
0.116968235,-0.277118682861328,0.229568243026733,-0.263519048690796,0.446025371049765
0.121968235,-0.359524726867676,0.264053463935852,-0.255950629711151,0.514288815642858
0.126968235,-0.414664268493652,0.297639608383179,-0.247562170028687,0.567294297585636
0.131968235,-0.428451538085938,0.315689325332642,-0.22521585226059,0.577886364890752
0.136968235,-0.404654502868652,0.324005007743835,-0.198592662811279,0.555124812503849
0.141968235,-0.345548629760742,0.331465125083923,-0.160310089588165,0.504947828493393
0.146968235,-0.264359474182129,0.317368030548096,-0.114732652902603,0.428686342266578
0.151968235,-0.156839370727539,0.301111698150635,-0.0644941031932831,0.345581151569462
0.156968235,-0.0469398498535156,0.279821753501892,-0.00664961338043213,0.283809408926578
0.161968235,0.069732666015625,0.255544781684876,0.0621248781681061,0.272075872953519
0.166968235,0.182820320129395,0.235588073730469,0.107217580080032,0.316892125832223
0.171968235,0.301716804504395,0.230141520500183,0.15818977355957,0.411123040022458
0.176968235,0.393312454223633,0.1963050365448,0.2162184715271,0.48987833331327
0.181968235,0.468299865722656,0.190352201461792,0.219369828701019,0.551055211917575
0.186968235,0.498496055603027,0.180716276168823,0.258859157562256,0.590054873192268
0.191968235,0.506950378417969,0.190312743186951,0.270540475845337,0.605317912726928
0.196968235,0.506183624267578,0.18720555305481,0.300178349018097,0.617555521220925
0.201968235,0.47944450378418,0.177034854888916,0.309747934341431,0.597622083664234
0.206968235,0.43919563293457,0.171497941017151,0.301292717456818,0.559536995519004
0.211968235,0.381747245788574,0.140855312347412,0.303415060043335,0.507574504230413
0.216968235,0.318722724914551,0.118072509765625,0.308125853538513,0.458766644993015
0.221968235,0.224712371826172,0.0935622453689575,0.304656505584717,0.389955292572514
0.226968235,0.149089813232422,0.0814981460571289,0.31162491440773,0.35493634288426
0.231968235,0.0799655914306641,0.0651035308837891,0.321773707866669,0.337892415748943
0.236968235,0.0182886123657227,0.0278968811035156,0.282701551914215,0.284662742156878
0.241968235,0.00113964080810547,0.00805318355560303,0.267720878124237,0.26784439723497
0.246968235,-0.0390710830688477,-0.0179139375686646,0.203209400177002,0.207705365871187
0.251968235,-0.0616846084594727,-0.0269721746444702,0.119306311011314,0.136990820761753
0.256968235,-0.0463171005249023,-0.0384337902069092,0.0336648523807526,0.0689619628238675
0.261968235,0.027125358581543,-0.0548806190490723,-0.0525084435939789,0.0806523655824722
0.266968235,0.136368751525879,-0.0865098237991333,-0.0961686968803406,0.187959581469386
0.271968235,0.21198558807373,-0.136902093887329,-0.0686294138431549,0.261514950444818
0.276968235,0.276758193969727,-0.133994102478027,-0.0522661209106445,0.311899446654403
0.281968235,0.328161239624023,-0.152942061424255,-0.0161102712154388,0.362409456530747
0.286968235,0.350564002990723,-0.14365553855896,0.0128712356090546,0.379074798235979
0.291968235,0.348602294921875,-0.156436324119568,0.0479256510734558,0.385087978986173
0.296968235,0.314474105834961,-0.140231490135193,0.0748567283153534,0.352366802977116
0.301968235,0.22420597076416,-0.135743260383606,0.0795345306396484,0.273898323525246
0.306968235,0.0824403762817383,-0.10045862197876,0.0755149722099304,0.150302566176405
0.311968235,-0.0600461959838867,-0.0605533123016357,0.0764738321304321,0.114544734857383
0.316968235,-0.170735359191895,-0.0361723899841309,0.0637199580669403,0.185793535225535
0.321968235,-0.296241760253906,-0.0208793878555298,0.0647178590297699,0.30394659174426
0.326968235,-0.460769653320313,-0.0142843723297119,0.0191972553730011,0.461390562677252
0.331968235,-0.687240600585938,0.112790942192078,-0.162626177072525,0.715170408506617
0.336968235,-0.761502265930176,0.146896958351135,-0.188709050416946,0.798170109123909
0.341968235,-0.768953323364258,0.152114510536194,-0.190552294254303,0.80668346622091
0.346968235,-0.733546257019043,0.141730070114136,-0.19023996591568,0.770953155900412
0.351968235,-0.623703956604004,0.118743896484375,-0.197359800338745,0.664874145403121
0.356968235,-0.452498435974121,0.0882381200790405,-0.197193503379822,0.501424050250202
0.361968235,-0.319750785827637,0.0597646236419678,-0.204857498407364,0.384420303743416
0.366968235,-0.185891151428223,0.0364071130752564,-0.207102984189987,0.280664647082925
0.371968235,-0.0603485107421875,0.00487673282623291,-0.224590450525284,0.232608245208566
0.376968235,0.0447931289672852,-0.00305521488189697,-0.240033715963364,0.244196526469635
0.381968235,0.156686782836914,-0.0109105110168457,-0.21261602640152,0.264339482198938
0.386968235,0.197945594787598,-0.0232256650924683,-0.198357313871384,0.281189462784568
0.391968235,0.202751159667969,-0.0360820293426514,-0.173165023326874,0.269065179634948
0.396968235,0.187456130981445,-0.0301370620727539,-0.160906761884689,0.248875530281958
0.401968235,0.14376163482666,-0.0241292715072632,-0.147996485233307,0.20773201253759
0.406968235,0.0836172103881836,-0.0107723474502563,-0.128442317247391,0.153640197222505
0.411968235,0.0332441329956055,-0.00287270545959473,-0.117163330316544,0.121822291827689
0.416968235,-0.0304756164550781,0.00332522392272949,-0.133695691823959,0.137165441437486
0.421968235,-0.0729465484619141,0.0352507829666138,-0.115404933691025,0.141003955095222
0.426968235,-0.099700927734375,0.0370022058486939,-0.118338048458099,0.159101640285811
0.431968235,-0.119401931762695,0.0417081117630005,-0.0875815749168396,0.153840567342988
0.436968235,-0.132862091064453,0.0469857454299927,-0.0817903578281403,0.16294065836766
0.441968235,-0.0935478210449219,0.0380691289901733,-0.0831016004085541,0.130791167113021
0.446968235,-0.0431785583496094,0.0251040458679199,-0.0862886905670166,0.0997012494398119
0.451968235,0.00449371337890625,0.0109502077102661,-0.0830416977405548,0.0838810113938989
0.456968235,0.0762567520141602,-0.00598490238189697,-0.070273756980896,0.103871614045802
0.461968235,0.160991668701172,-0.0189474821090698,-0.0553732216358185,0.171299498375771
0.466968235,0.250328063964844,-0.0340526103973389,-0.0628310739994049,0.260329529141776
0.471968235,0.338327407836914,-0.0505421161651611,-0.0661627054214478,0.348421359834301
0.476968235,0.381766319274902,-0.0732748508453369,-0.0748666822910309,0.395878449042606
0.481968235,0.412816047668457,-0.0709632635116577,-0.0769307017326355,0.425876985583756
0.486968235,0.408754348754883,-0.071779727935791,-0.073976457118988,0.421550665017198
0.491968235,0.365907669067383,-0.0711716413497925,-0.0804435014724731,0.381346275376987
0.496968235,0.309281349182129,-0.0654779672622681,-0.0852384269237518,0.327426184922881
0.501968235,0.219186782836914,-0.0565645694732666,-0.0917246043682098,0.244245367072944
0.506968235,0.110013961791992,-0.0371836423873901,-0.0980415940284729,0.151979765791395
0.511968235,-0.0238771438598633,-0.0215805768966675,-0.0960429310798645,0.101292072288552
0.516968235,-0.145685195922852,0.00078737735748291,-0.0975981652736664,0.175357344126126
0.521968235,-0.26799201965332,0.0202405452728272,-0.104859739542007,0.28848737796934
0.526968235,-0.347922325134277,0.0115538835525513,-0.113149017095566,0.366041167932898
0.531968235,-0.442299842834473,0.0360475778579712,-0.105748921632767,0.456192298562041
0.536968235,-0.482945442199707,0.0413792133331299,-0.110606342554092,0.497174317971808
0.541968235,-0.506048202514648,0.0561916828155518,-0.0931108593940735,0.517602087150982
0.546968235,-0.505032539367676,0.0480270385742188,-0.0917586386203766,0.515542539482279
0.551968235,-0.452363014221191,0.039475679397583,-0.0772688388824463,0.460609486833938
0.556968235,-0.376204490661621,0.0248396396636963,-0.0614749491214752,0.382002612375989
0.561968235,-0.291056632995605,0.00817942619323731,-0.065899670124054,0.298535815516411
0.566968235,-0.18210506439209,-0.011857271194458,-0.0496944487094879,0.189135897147966
0.571968235,-0.0620250701904297,-0.0272420644760132,-0.024224191904068,0.0719447766168476
0.576968235,0.0511846542358398,-0.0469982624053955,-0.023019015789032,0.0732023263719439
0.581968235,0.154319763183594,-0.0633785724639893,-0.00932016968727112,0.167087696493827
0.586968235,0.250792503356934,-0.0715619325637817,0.00895246863365173,0.26095619675903
0.591968235,0.32464599609375,-0.0834319591522217,0.003277987241745,0.335211365839582
0.596968235,0.377355575561523,-0.0974022150039673,0.0169966220855713,0.390093972085403
0.601968235,0.397932052612305,-0.0958414077758789,0.0337625443935394,0.410701111934981
0.606968235,0.39372444152832,-0.100361824035645,0.0248076021671295,0.407071061002661
0.611968235,0.36780834197998,-0.10082733631134,0.0159278810024261,0.381710394895043
0.616968235,0.325888633728027,-0.0868326425552368,0.0282919704914093,0.33844311929855
0.621968235,0.25920581817627,-0.0805730819702148,0.0161416530609131,0.271919529784359
0.626968235,0.195509910583496,-0.0624364614486694,0.0482676029205322,0.210836899868813
0.631968235,0.119244575500488,-0.0916872024536133,0.329971790313721,0.362639206764662
0.636968235,0.0193185806274414,-0.127607345581055,0.7856565117836,0.796186533867332
0.641968235,-0.0792608261108398,-0.141113877296448,1.17250692844391,1.18362489926935
0.646968235,-0.18485164642334,-0.160439252853394,1.38747787475586,1.40890231669148
0.651968235,-0.253039360046387,-0.156757235527039,1.38866031169891,1.42020393250775
0.656968235,-0.260392189025879,-0.142398476600647,1.20470595359802,1.24072472888969
0.661968235,-0.230437278747559,-0.103131890296936,0.880668342113495,0.916140958059256
0.666968235,-0.186973571777344,-0.0822235345840454,0.533763527870178,0.571509693589785
0.671968235,-0.141033172607422,-0.0627455711364746,0.203171983361244,0.255159199904489
0.676968235,-0.0955610275268555,-0.0393772125244141,-0.0546819865703583,0.116929870022429
0.681968235,-0.0856494903564453,-0.0437748432159424,-0.159901708364487,0.18660286287938
0.686968235,-0.0795726776123047,-0.0551540851593018,-0.157230526208878,0.184648916877603
0.691968235,-0.077301025390625,-0.0576746463775635,-0.179379850625992,0.203663801820113
0.696968235,-0.0742578506469727,-0.0684198141098023,-0.178926587104797,0.205451266529313
0.701968235,-0.0906591415405273,-0.06763756275177,-0.181041568517685,0.213471237807834
0.706968235,-0.110394477844238,-0.0672097206115723,-0.168149352073669,0.212080861668333
0.711968235,-0.10103702545166,-0.0698279142379761,-0.161663949489594,0.20302623151583
0.716968235,-0.0936222076416016,-0.0514155626296997,-0.131917774677277,0.169737966053622
0.721968235,-0.0819463729858398,-0.0389044284820557,-0.119525045156479,0.150049988406224
0.726968235,-0.0816049575805664,-0.0315016508102417,-0.110810935497284,0.141176437592396
0.731968235,-0.0959596633911133,-0.0331395864486694,-0.081491619348526,0.130182077154152
0.736968235,-0.112200736999512,-0.0252571105957031,-0.0934347808361054,0.148178896232791
0.741968235,-0.121233940124512,-0.0199686288833618,-0.0535631477832794,0.134035163960987
0.746968235,-0.107000350952148,-0.0386382341384888,-0.038106769323349,0.119975472949626
0.751968235,-0.0739173889160156,-0.0626528263092041,-0.0229528248310089,0.0995790600297863
0.756968235,-0.0237808227539063,-0.0583280324935913,-0.00850674510002136,0.0635614003749358
0.761968235,0.0407581329345703,-0.0711002349853516,0.00295084714889526,0.0820071723337688
0.766968235,0.107706069946289,-0.0716276168823242,-0.0113351047039032,0.12984451317697
0.771968235,0.181477546691895,-0.0876742601394653,-0.00621506571769714,0.201642016668617
0.776968235,0.232514381408691,-0.088065505027771,-0.00146490335464478,0.248637520659094
0.781968235,0.268324851989746,-0.0970981121063232,-0.0188143849372864,0.285972464846705
0.786968235,0.287860870361328,-0.0988376140594482,-0.0148484706878662,0.304718282549496
0.791968235,0.290834426879883,-0.111148595809937,-0.0310244262218475,0.312891657337593
0.796968235,0.274821281433105,-0.120014071464539,-0.0509920716285706,0.304187944282811
0.801968235,0.244041442871094,-0.114176034927368,-0.0593625903129578,0.275891844604013
0.806968235,0.20210075378418,-0.110833644866943,-0.0711902379989624,0.241240256800092
0.811968235,0.154214859008789,-0.100592732429504,-0.0948146283626556,0.207101265829746
0.816968235,0.0818519592285156,-0.0959160327911377,-0.125268161296844,0.177740656043094
0.821968235,0.0280065536499023,-0.0826300382614136,-0.161869555711746,0.183885408167004
0.826968235,-0.0576381683349609,-0.0673469305038452,-0.191033840179443,0.210598422574824
0.831968235,-0.129795074462891,-0.0641694068908691,-0.196782737970352,0.244311113334333
0.836968235,-0.204514503479004,-0.0613293647766113,-0.195475518703461,0.289479103787395
0.841968235,-0.260454177856445,-0.0541729927062988,-0.203963488340378,0.335219624242986
0.846968235,-0.297078132629395,-0.0477159023284912,-0.184831559658051,0.353121692433668
0.851968235,-0.301546096801758,-0.0427135229110718,-0.18087711930275,0.354218895350193
0.856968235,-0.303193092346191,-0.0464034080505371,-0.156328678131104,0.344264408749102
0.861968235,-0.290240287780762,-0.0476071834564209,-0.155098021030426,0.332507540809629
0.866968235,-0.247722625732422,-0.0540343523025513,-0.1331647336483,0.286389693976834
0.871968235,-0.204254150390625,-0.0584280490875244,-0.113826096057892,0.241018619645352
0.876968235,-0.151092529296875,-0.060033917427063,-0.0851772427558899,0.183543418118063
0.881968235,-0.0934572219848633,-0.0781865119934082,-0.0546079576015472,0.133526821396436
0.886968235,-0.037257194519043,-0.0735048055648804,-0.0663621723651886,0.105806393500524
0.891968235,0.0356550216674805,-0.095248818397522,-0.0113090574741364,0.10233040973819
0.896968235,0.100172996520996,-0.105575084686279,0.00567877292633057,0.145646751424326
0.901968235,0.140419960021973,-0.119352579116821,0.0212883949279785,0.185515495506492
0.906968235,0.176633834838867,-0.131272315979004,0.0286116600036621,0.221924671094813
0.911968235,0.19997501373291,-0.123425960540771,0.0425058305263519,0.238811053935166
0.916968235,0.205260276794434,-0.126652121543884,0.0682334899902344,0.25065584030208
0.921968235,0.202640533447266,-0.136230111122131,0.0709306001663208,0.254269500750867
0.926968235,0.190034866333008,-0.128578782081604,0.0473238825798035,0.234276126581903
0.931968235,0.166585922241211,-0.134459018707275,0.0544598400592804,0.220898101802529
0.936968235,0.129408836364746,-0.125557065010071,0.0226797163486481,0.18172945010888
0.941968235,0.0972003936767578,-0.123694181442261,0.0000619888305664063,0.157315513844639
0.946968235,0.0587739944458008,-0.121864914894104,-0.0260604619979858,0.137784569472821
0.951968235,0.0197210311889648,-0.115201234817505,-0.0466087162494659,0.125827723515358
0.956968235,-0.0131359100341797,-0.109144568443298,-0.0484649837017059,0.12014134841222
0.961968235,-0.0267000198364258,-0.110530138015747,-0.0651440024375916,0.131047867295254
0.966968235,-0.0354909896850586,-0.112319111824036,-0.067750483751297,0.13588716377311
0.971968235,-0.0462303161621094,-0.119224071502686,-0.0445453226566315,0.135410144113022
0.976968235,-0.0792655944824219,-0.122463703155518,-0.0467198491096497,0.153176817306154
0.981968235,-0.0794095993041992,-0.111727595329285,-0.0285047888755798,0.140005224933069
0.986968235,-0.0926971435546875,-0.111645817756653,-0.0138234496116638,0.14576912157558
0.991968235,-0.0977697372436523,-0.107653021812439,-0.00107690691947937,0.145427832118049
0.996968235,-0.0859966278076172,-0.108831763267517,0.192257344722748,0.237071000525244
1.001968235,-0.0496225357055664,-0.146208643913269,0.437579482793808,0.464020654030512
1.006968235,-0.0578289031982422,-0.140481114387512,0.624901056289673,0.643102212479959
1.011968235,-0.111429214477539,-0.130680084228516,0.666844010353088,0.688603433332163
1.016968235,-0.158187866210938,-0.124279260635376,0.664279341697693,0.694071883486693
1.021968235,-0.150447845458984,-0.0872550010681152,0.582611739635468,0.60801679958346
1.026968235,-0.106701850891113,-0.0456815958023071,0.452092200517654,0.466754165431365
1.031968235,-0.0760774612426758,-0.010312557220459,0.270311415195465,0.281002473530984
1.036968235,-0.0484533309936523,-0.00970935821533203,0.092493087053299,0.104866429680729
1.041968235,0.005645751953125,-0.0432522296905518,-0.0446817278862,0.0624426672653954
1.046968235,0.0320100784301758,-0.053347110748291,-0.0961266160011292,0.114502775731093
1.051968235,0.0452165603637695,-0.0472992658615112,-0.0950504541397095,0.115396476178146
1.056968235,0.0558443069458008,-0.0478613376617432,-0.0894610285758972,0.115812649977823
1.061968235,0.0569829940795898,-0.0485758781433106,-0.0560233891010284,0.0935162963233337
1.066968235,0.0714054107666016,-0.0530266761779785,-0.0554393827915192,0.104804991472429
1.071968235,0.0715723037719727,-0.0556025505065918,-0.0404023826122284,0.0992299894729941
1.076968235,0.0621652603149414,-0.0540958642959595,-0.0371156632900238,0.0903795031265923
1.081968235,0.0560216903686523,-0.0461043119430542,-0.0399520099163055,0.0828263271421363
1.086968235,0.037968635559082,-0.0412144660949707,-0.011681079864502,0.0572424416714797
1.091968235,0.0202512741088867,-0.0394463539123535,0.010389506816864,0.0455419673697742
1.096968235,0.00895977020263672,-0.0283335447311401,-0.0166393518447876,0.0340578224337701
1.101968235,0.00111961364746094,-0.0254470109939575,-0.0225159525871277,0.0339966472486914
1.106968235,-0.00629329681396484,-0.0354487895965576,-0.0207164287567139,0.041537846466586
1.111968235,-0.00972938537597656,-0.0418195724487305,-0.033943235874176,0.0547328132037705
1.116968235,-0.0163183212280273,-0.0455604791641235,-0.0436577498912811,0.0651770204515002
1.121968235,-0.02203369140625,-0.0412185192108154,-0.0501790642738342,0.0685739628016042
1.126968235,-0.0143222808837891,-0.0420385599136353,-0.0674355626106262,0.0807460423422606
1.131968235,0.000744819641113281,-0.0439537763595581,-0.0801579654216766,0.0914209419832597
1.136968235,0.0196294784545898,-0.0434387922286987,-0.077411025762558,0.0909104614678568
1.141968235,0.0168552398681641,-0.0352553129196167,-0.0906360149383545,0.0987011823838958
1.146968235,0.0239057540893555,-0.0310157537460327,-0.0961295664310455,0.103799593454098
1.151968235,0.0307064056396484,-0.0352643728256226,-0.102720826864243,0.112862870820145
1.156968235,0.0352878570556641,-0.03248131275177,-0.118601113557816,0.127931593716381
1.161968235,0.0128726959228516,-0.0356003046035767,-0.108137249946594,0.114572042026848
1.166968235,-0.00936126708984375,-0.0292106866836548,-0.108403086662292,0.112659339319785
1.171968235,-0.010523796081543,-0.0285696983337402,-0.111693739891052,0.115769035055566
1.176968235,-0.020721435546875,-0.0236468315124512,-0.112283706665039,0.116602664266912
1.181968235,-0.0259180068969727,-0.0317615270614624,-0.0990541577339172,0.107201976880855
1.186968235,-0.0203723907470703,-0.0244876146316528,-0.114875882863998,0.119210511444598
1.191968235,-0.0329246520996094,-0.0168560743331909,-0.0865041613578796,0.0940804437172596
1.196968235,-0.0409984588623047,-0.0193736553192139,-0.0904942750930786,0.101219691632279
1.201968235,-0.0374650955200195,-0.021170973777771,-0.0729668140411377,0.0847112711764924
1.206968235,-0.0304746627807617,-0.0210627317428589,-0.0745179355144501,0.0832181858334374
1.211968235,-0.0299177169799805,-0.0348845720291138,-0.0725739598274231,0.0859010058147229
1.216968235,-0.0234384536743164,-0.0306302309036255,-0.0609482228755951,0.0721266804140167
1.221968235,-0.0141534805297852,-0.0266460180282593,-0.0606080591678619,0.0677027925861584
1.226968235,-0.0219535827636719,-0.0301705598831177,-0.0458955466747284,0.059149164697351
1.231968235,-0.00892162322998047,-0.0213049650192261,-0.0489366054534912,0.054113660464238
1.236968235,0.0212221145629883,-0.0263482332229614,-0.0461992919445038,0.057262397056617
1.241968235,0.0451717376708984,-0.0329077243804932,-0.0381170213222504,0.0676484406515912
1.246968235,0.0404739379882813,-0.0399750471115112,-0.0551825761795044,0.0792544053138599
1.251968235,0.0481491088867188,-0.0320950746536255,-0.0636886060237885,0.0860503866398068
1.256968235,0.05413818359375,-0.0326347351074219,-0.0499148964881897,0.0805448058523259
1.261968235,0.0515165328979492,-0.0319523811340332,-0.0665108263492584,0.089992209905198
1.266968235,0.0400667190551758,-0.035054087638855,-0.0685059726238251,0.0867594336148824
1.271968235,0.033477783203125,-0.00406789779663086,0.00258749723434448,0.0338231415249532
1.276968235,0.016383171081543,0.0116682052612305,0.158838093280792,0.160106512003051
1.281968235,-0.00786209106445313,0.0254949331283569,0.272947818040848,0.274248638035606
1.286968235,-0.021815299987793,0.0424289703369141,0.350183218717575,0.353418182198949
1.291968235,-0.034245491027832,0.0474812984466553,0.396936625242233,0.40123049711682
1.296968235,-0.0402097702026367,0.0473722219467163,0.401733458042145,0.406510423411771
1.301968235,-0.0437736511230469,0.0511142015457153,0.348567932844162,0.355004785798094
1.306968235,-0.0408411026000977,0.0405001640319824,0.276441007852554,0.2823612752676
1.311968235,-0.0317630767822266,0.0226163864135742,0.191135227680206,0.19507195913674
1.316968235,-0.0131931304931641,0.017534613609314,0.0914219319820404,0.0940185673894599
1.321968235,0.00202846527099609,0.00531613826751709,-0.00803402066230774,0.00984487102187655
1.326968235,-0.000321388244628906,0.00745069980621338,-0.0783503949642181,0.0787045145404955
1.331968235,0.0112009048461914,-0.0123019218444824,-0.124181061983109,0.125290597036225
1.336968235,-0.00230693817138672,-0.0144426822662354,-0.139572322368622,0.140336546224212
1.341968235,-0.00300693511962891,-0.0111880302429199,-0.118872433900833,0.119435627938392
1.346968235,0.00245571136474609,-0.00113201141357422,-0.104124158620834,0.104159264478221
1.351968235,-0.0166349411010742,-0.00879335403442383,-0.0974626541137695,0.0992623457687315
1.356968235,-0.0201320648193359,0.00822019577026367,-0.0868008434772492,0.0894832838062692
1.361968235,-0.0247516632080078,0.00171935558319092,-0.0736632645130158,0.0777295153329713
1.366968235,-0.0212316513061523,-0.00240528583526611,-0.0667193830013275,0.0700574370442796
1.371968235,-0.0101509094238281,0.0060654878616333,-0.05402010679245,0.055299213764737
1.376968235,-0.0160226821899414,0.0079948902130127,-0.0523415803909302,0.0553198486250478
1.381968235,-0.0160017013549805,-0.00484228134155273,-0.0552480518817902,0.0577221740025245
1.386968235,0.00351619720458984,-0.00142419338226318,-0.0231673419475555,0.0234758962019901
1.391968235,0.00651168823242188,0.00957012176513672,0.00685161352157593,0.0134511680565238
1.396968235,0.0211782455444336,-0.000189900398254395,0.00932174921035767,0.0231397743040502
1.401968235,0.0320758819580078,0.0045551061630249,0.024714469909668,0.040748205094904
1.406968235,0.0359783172607422,0.0104635953903198,0.0206128656864166,0.0427646626692319
1.411968235,0.0357322692871094,-0.00263082981109619,-0.00487890839576721,0.0361596471364937
1.416968235,0.0456972122192383,-0.0118709802627563,0.0000122785568237305,0.0472139336189203
1.421968235,0.0542507171630859,0.00802338123321533,-0.0119028687477112,0.0561176731836585
1.426968235,0.0519990921020508,-0.002937912940979,-0.0275206863880157,0.0589060700705271
1.431968235,0.0461931228637695,0.00289225578308105,-0.0363668203353882,0.0588618328352803
1.436968235,0.0226049423217773,0.0113004446029663,-0.0493742525577545,0.0554662084627435
1.441968235,0.0287332534790039,0.0161681175231934,-0.0538705289363861,0.0631588613546705
1.446968235,0.0189838409423828,0.0183576345443726,-0.0554976463317871,0.0614603751319381
1.451968235,0.00485038757324219,0.0317466259002686,-0.0387408137321472,0.0503212198211767
1.456968235,-0.00264263153076172,0.0321091413497925,-0.0169122517108917,0.0363868756224121
1.461968235,-0.0221967697143555,0.0295600891113281,0.018596738576889,0.0413803593473878
1.466968235,-0.0460233688354492,0.0389683246612549,0.0514250099658966,0.079254100561809
1.471968235,-0.0274972915649414,0.0601680278778076,0.0913791954517365,0.112811568482664
1.476968235,-0.0496759414672852,0.0561795234680176,0.108010292053223,0.131491677330457
1.481968235,-0.050654411315918,0.0584381818771362,0.144856438040733,0.164208033082174
1.486968235,-0.0450773239135742,0.0603007078170776,0.139636144042015,0.158639191933684
1.491968235,-0.0433406829833984,0.0542972087860107,0.149436891078949,0.164796802453084
1.496968235,-0.0333614349365234,0.0496194362640381,0.119422569870949,0.133554573080694
1.501968235,-0.0247459411621094,0.0568772554397583,0.0923514366149902,0.111248243290448
1.506968235,-0.0048980712890625,0.0542546510696411,0.0572170317173004,0.0790021960680829
1.511968235,0.00778579711914063,0.0409361124038696,0.0266256332397461,0.049450058452343
1.516968235,0.0205812454223633,0.04233717918396,-0.025577187538147,0.0535744055193506
1.521968235,0.0189237594604492,0.0287526845932007,-0.0427950322628021,0.054920308901237
1.526968235,0.0336170196533203,0.0275770425796509,-0.0477404296398163,0.0645735697480467
1.531968235,0.031184196472168,0.0336959362030029,-0.0375150144100189,0.0592895145231899
1.536968235,0.0238199234008789,0.0302685499191284,-0.031154602766037,0.0495397127418001
1.541968235,0.0162172317504883,0.0397557020187378,-0.0272684395313263,0.0508633683816292
1.546968235,0.0185966491699219,0.0405374765396118,-0.0202356576919556,0.0489755470288463
1.551968235,0.011286735534668,0.0444693565368652,-0.0170595347881317,0.0489483584711464
1.556968235,-0.000689506530761719,0.0436278581619263,-0.00794163346290588,0.0443501405760147
1.561968235,0.0112409591674805,0.0523089170455933,-0.00730940699577332,0.0540000870010186
1.566968235,0.00649070739746094,0.0513311624526978,-0.0210030078887939,0.0558403425996066
1.571968235,0.00155544281005859,0.0456036329269409,-0.022649884223938,0.0509423987836098
1.576968235,-0.00522708892822266,0.0423320531845093,-0.0328198373317719,0.0538188341379079
1.581968235,0.00696372985839844,0.0421066284179688,-0.050165593624115,0.0658638631871035
1.586968235,0.00734043121337891,0.0498960018157959,-0.0464123487472534,0.0685390329946151
1.591968235,-0.00690364837646484,0.0417823791503906,-0.036178320646286,0.0556982805224573
1.596968235,0.0153398513793945,0.0581103563308716,-0.0382008254528046,0.0712139566273243
1.601968235,0.0184431076049805,0.0637390613555908,-0.0274835228919983,0.071820332714181
1.606968235,0.0226459503173828,0.051561713218689,-0.0420290529727936,0.0702701261533917
1.611968235,0.0226306915283203,0.0522037744522095,-0.0490495562553406,0.0751215098021397
1.616968235,0.0252313613891602,0.0406463146209717,-0.0533581078052521,0.0716647204583561
1.621968235,0.024566650390625,0.0485388040542603,-0.0492119491100311,0.0733576972487643
1.626968235,0.0132589340209961,0.0561600923538208,-0.0491440892219543,0.0757950975328762
1.631968235,0.0149774551391602,0.0483940839767456,-0.0428851842880249,0.0663735682166608
1.636968235,0.0187225341796875,0.0476431846618652,-0.0485820174217224,0.0705734989043245
1.641968235,0.0102043151855469,0.0412384271621704,-0.0343285202980042,0.0546185245962036
1.646968235,0.00584316253662109,0.0543180704116821,-0.0392442941665649,0.0672659642487173
1.651968235,-0.00452423095703125,0.0549018383026123,-0.0216187834739685,0.0591781405051991
1.656968235,-0.0123405456542969,0.0447475910186768,-0.0357378125190735,0.0585817993293906
1.661968235,-0.0230779647827148,0.0494343042373657,-0.0207890868186951,0.0583826089233763
1.666968235,-0.0146446228027344,0.0488988161087036,0.00460383296012878,0.0512518728613106
1.671968235,-0.00499916076660156,0.0651438236236572,0.0806055665016174,0.103759176537438
1.676968235,-0.0212545394897461,0.0724544525146484,0.126920372247696,0.147682714051484
1.681968235,-0.0173940658569336,0.0763969421386719,0.16880638897419,0.186103850722333
1.686968235,-0.0141534805297852,0.072467565536499,0.191417038440704,0.205164206603647
1.691968235,-0.0113687515258789,0.0751307010650635,0.168064668774605,0.184444039329285
1.696968235,-0.00884628295898438,0.0713567733764648,0.128067001700401,0.146871381669205
1.701968235,0.0131206512451172,0.0612517595291138,0.07307568192482,0.0962495964837559
1.706968235,0.0161714553833008,0.0672963857650757,0.0295118093490601,0.0752413875291467
1.711968235,0.0369272232055664,0.0592782497406006,-0.0240131020545959,0.0738522834871555
1.716968235,0.0468387603759766,0.0362117290496826,-0.0501232743263245,0.077572555865575
1.721968235,0.0380668640136719,0.0407872200012207,-0.0797485113143921,0.09732681289411
1.726968235,0.0363903045654297,0.0411374568939209,-0.0929073691368103,0.107927400904439
1.731968235,0.040252685546875,0.0241745710372925,-0.0938583314418793,0.104947963103751
1.736968235,0.0200595855712891,0.0423604249954224,-0.0971085429191589,0.107827926285201
1.741968235,0.0104990005493164,0.0351450443267822,-0.0802790820598602,0.0882617367245842
1.746968235,-0.0142745971679688,0.0449312925338745,-0.0397782921791077,0.0616838528446371
1.751968235,-0.0186643600463867,0.0504487752914429,-0.0144141316413879,0.055688458905979
1.756968235,-0.0143814086914063,0.0496451854705811,0.0249431431293488,0.057390153733274
1.761968235,-0.0169553756713867,0.0514289140701294,0.0576649010181427,0.079105365026797
1.766968235,0.0000362396240234375,0.0657271146774292,0.0727702975273132,0.0980590185518087
1.771968235,-0.0165004730224609,0.0461512804031372,0.0724119246006012,0.0874396541460287
1.776968235,-0.0028228759765625,0.0454607009887695,0.0898747146129608,0.100757671122007
1.781968235,0.000370979309082031,0.0494356155395508,0.0620598793029785,0.0793438487125644
1.786968235,0.0129451751708984,0.0471152067184448,0.0405019223690033,0.0634651556360796
1.791968235,0.0191745758056641,0.0470926761627197,0.0166528522968292,0.0535042240866453
1.796968235,0.0332298278808594,0.0470350980758667,-0.0260873734951019,0.0632224087477762
1.801968235,0.0321207046508789,0.0338943004608154,-0.036327987909317,0.0591632147244934
1.806968235,0.0295934677124023,0.0396966934204102,-0.0554297864437103,0.0743240339658335
1.811968235,0.0300378799438477,0.0411335229873657,-0.0513692498207092,0.07233975927535
1.816968235,0.0242767333984375,0.0422348976135254,-0.0595761239528656,0.0769575266375615
1.821968235,0.0348215103149414,0.0406217575073242,-0.0653522908687592,0.0844605629000442
1.826968235,0.0220451354980469,0.0358889102935791,-0.0796461701393127,0.0900972491203154
1.831968235,0.00805473327636719,0.0378457307815552,-0.0543397665023804,0.0667082325509872
1.836968235,0.00109672546386719,0.0455868244171143,-0.0342555642127991,0.0570333678360054
1.841968235,-0.0185279846191406,0.0456159114837647,-0.00276580452919006,0.0493127495606912
1.846968235,-0.018218994140625,0.0523355007171631,0.0127696990966797,0.0568682828809878
1.851968235,-0.0152444839477539,0.0424838066101074,0.0445370078086853,0.0634098823486468
1.856968235,-0.0248003005981445,0.0591175556182861,0.0628036260604858,0.0897453939675169
1.861968235,-0.0280704498291016,0.0506834983825684,0.0690810084342957,0.0901607058989843
1.866968235,-0.0259504318237305,0.0539573431015015,0.0626537799835205,0.0866620789771087
1.871968235,-0.0180654525756836,0.0560283660888672,0.0567745566368103,0.0817856262717281
1.876968235,-0.00607109069824219,0.0540097951889038,0.0496300756931305,0.0736006829582408
1.881968235,-0.000490188598632813,0.0477526187896729,0.031896710395813,0.057427807029421
1.886968235,0.0176706314086914,0.045975923538208,0.00132763385772705,0.0492727041193516
1.891968235,0.0043182373046875,0.0376040935516357,-0.00344887375831604,0.0380080222513691
1.896968235,0.0225944519042969,0.0387343168258667,-0.038205087184906,0.0589108245030442
1.901968235,0.0307464599609375,0.0409518480300903,-0.0434937179088593,0.0671870683595033
1.906968235,0.0360279083251953,0.0303288698196411,-0.0338200926780701,0.0579797308684566
1.911968235,0.0369043350219727,0.0209367275238037,-0.0481863915920258,0.0642043988950917
1.916968235,0.0258264541625977,0.0402793884277344,-0.0470526516437531,0.0671072789899385
1.921968235,0.0138607025146484,0.0462939739227295,-0.0298725366592407,0.0568121425596291
1.926968235,0.0172529220581055,0.0329229831695557,-0.0242132246494293,0.0443606400793501
1.931968235,0.0114116668701172,0.0360599756240845,-0.00390639901161194,0.0380237811902238
1.936968235,-0.003448486328125,0.0289179086685181,0.00615844130516052,0.0297668254777886
1.941968235,-0.00670242309570313,0.0378327369689941,0.0166794657707214,0.0418860721519168
1.946968235,-0.0114068984985352,0.0273540019989014,0.0476201176643372,0.0560895209916888
1.951968235,-0.011326789855957,0.0104316473007202,0.0522093176841736,0.0544327868742231
1.956968235,0.00371265411376953,0.00858068466186523,0.0335066318511963,0.034786582583612
1.961968235,0.0131053924560547,0.0158981084823608,0.026886910200119,0.0338733981887468
1.966968235,0.0113353729248047,0.0063481330871582,-0.00145292282104492,0.0130728901839104
1.971968235,-0.0014495849609375,0.00413894653320313,-0.00778231024742127,0.00893289022381941
1.976968235,-0.000757217407226563,0.014687180519104,-0.0347228646278381,0.0377089376377236
1.981968235,0.0103569030761719,0.0213018655776978,-0.0209182500839233,0.031600761145787
1.986968235,0.0146703720092773,0.0155192613601685,-0.0176418423652649,0.027700214621852
1.991968235,0.0181312561035156,0.00982916355133057,-0.0237414240837097,0.0314485313096276
1.996968235,0.00983142852783203,0.0157487392425537,-0.0269896686077118,0.0327585406601382
2.001968235,0.00240612030029297,-0.0105435848236084,-0.0267040133476257,0.0288107779260172
2.006968235,0.0117950439453125,0.0000312328338623047,-0.00265344977378845,0.0120898648819489
2.011968235,0.00559043884277344,0.00360655784606934,0.000599592924118042,0.00667980371167347
2.016968235,-0.00965595245361328,-0.00830090045928955,0.00723841786384583,0.0146470836480549
2.021968235,-0.00255298614501953,-0.0010981559753418,0.0200858116149902,0.0202771672833194
2.026968235,-0.00168132781982422,-0.000179171562194824,0.0266208052635193,0.026674449170782
2.031968235,-0.021453857421875,0.00383865833282471,0.0266816914081574,0.0344516465858229
2.036968235,-0.0219058990478516,-0.00869369506835938,0.0384390354156494,0.0450888920990728
2.041968235,-0.00535774230957031,-0.00237321853637695,0.0248977243900299,0.025578003219154
2.046968235,-0.00911998748779297,-0.000640392303466797,0.0240594744682312,0.0257379600156522
2.051968235,-0.0132255554199219,0.000685214996337891,0.029385507106781,0.0322318610024198
2.056968235,-0.0120763778686523,0.00317192077636719,0.0184560418128967,0.0222828513264667
2.061968235,-0.00642967224121094,0.012697696685791,-0.00300869345664978,0.0145473166793685
2.066968235,-0.00176048278808594,-0.00700986385345459,-0.0168029069900513,0.0182913961798281
2.071968235,-0.0000352859497070313,0.0065000057220459,-0.0340322256088257,0.0346474198083333
2.076968235,0.00550174713134766,0.00076591968536377,-0.0230816602706909,0.0237406591170783
2.081968235,0.00429630279541016,0.00171279907226563,-0.022854745388031,0.023318046340196
2.086968235,0.00284290313720703,0.00302708148956299,-0.00872448086738586,0.00966239551029549
2.091968235,0.012507438659668,-0.00740504264831543,-0.00975781679153442,0.0175067320475833
2.096968235,0.0169229507446289,-0.0234802961349487,0.0122093558311462,0.0314130377120961
2.101968235,0.0131168365478516,-0.014021635055542,0.00857970118522644,0.0210301907523835
2.106968235,0.00453662872314453,-0.0109527111053467,0.00863432884216309,0.0146661008889021
2.111968235,0.0127162933349609,-0.0108295679092407,0.0224371552467346,0.0279715854546663
2.116968235,-0.0132207870483398,-0.00214850902557373,0.0274296998977661,0.0305252966847504
2.121968235,0.00086212158203125,-0.00575339794158936,0.0226877927780151,0.0234218014387161
2.126968235,-0.0168190002441406,-0.00785791873931885,0.025705486536026,0.0317080067834602
2.131968235,0.00169181823730469,-0.0169203281402588,0.0140101611614227,0.0220328021161891
2.136968235,0.00185680389404297,-0.0141006708145142,0.00789979100227356,0.0162690914312947
2.141968235,0.00491142272949219,-0.00999045372009277,-0.009664386510849,0.0147421709863971
2.146968235,0.00294113159179688,-0.0142346620559692,0.000313848257064819,0.0145387193251806
2.151968235,0.00212383270263672,-0.00933253765106201,-0.0139034986495972,0.0168794016202183
2.156968235,-0.00465106964111328,-0.00853562355041504,-0.0246174335479736,0.0264670994385441
2.161968235,-0.00557041168212891,-0.0129208564758301,-0.0175583362579346,0.0225005153390783
2.166968235,0.00546741485595703,-0.0131913423538208,-0.0146738886833191,0.0204750371768475
2.171968235,0.00369071960449219,-0.0151664018630981,-0.0235441327095032,0.0282483157323524
2.176968235,0.0070037841796875,-0.0183770656585693,0.000126928091049194,0.0196668666999933
2.181968235,0.00570487976074219,-0.0217217206954956,0.00352367758750916,0.0227331279589581
2.186968235,-0.00177001953125,-0.00619256496429443,0.0149578452110291,0.0162855139106851
2.191968235,0.00557327270507813,-0.00137162208557129,0.0178636014461517,0.0187630214096171
2.196968235,0.000597953796386719,-0.00694119930267334,0.0168483853340149,0.018232001669194
2.201968235,0.00614452362060547,-0.0124294757843018,0.0188442170619965,0.023395545633226
2.206968235,0.00254631042480469,-0.00422346591949463,0.0207675695419312,0.0213451002769148
2.211968235,-0.00532913208007813,-0.0126667022705078,0.00102871656417847,0.0137805389192883
2.216968235,0.00144290924072266,-0.00699853897094727,-0.00166690349578857,0.00733758148636883
2.221968235,-0.00964832305908203,-0.0080571174621582,-0.00278827548027039,0.0128756265791341
2.226968235,-0.000977516174316406,-0.0190856456756592,-0.00782746076583862,0.0206515508078353
2.231968235,-0.00138378143310547,-0.0223429203033447,-0.000173807144165039,0.0223864054206919
2.236968235,-0.00226688385009766,-0.00814163684844971,-0.0216503739356995,0.0232414221707167
2.241968235,-0.000335693359375,-0.00773847103118897,-0.00971534848213196,0.012425160766016
2.246968235,-0.0134286880493164,-0.00915980339050293,-0.00113707780838013,0.0162949257997953
2.251968235,-0.00918483734130859,-0.00763475894927979,-0.0103127062320709,0.0157798191063427
2.256968235,0.00100994110107422,-0.00272917747497559,-0.0124201774597168,0.0127565355347136
2.261968235,-0.000432968139648438,-0.00270569324493408,0.0104351043701172,0.0107888665095492
2.266968235,-0.00678062438964844,0.00210976600646973,0.011176735162735,0.0132418801011589
2.271968235,-0.0153951644897461,-0.00346100330352783,0.00790286064147949,0.0176477998586797
2.276968235,-0.00647354125976563,-0.00251090526580811,0.0123844742774963,0.0141981190594289
2.281968235,0.000540733337402344,-0.0076601505279541,0.00834155082702637,0.011338067245036
2.286968235,-0.00500392913818359,-0.0149960517883301,0.00719767808914185,0.0173703035647957
2.291968235,-0.00647258758544922,-0.0118982791900635,0.0256105959415436,0.0289718149624254
2.296968235,0.00772476196289063,-0.0119976997375488,0.00951951742172241,0.0171533658014448
2.301968235,0.00211620330810547,-0.0193549394607544,-0.0000555217266082764,0.0194703641628201
2.306968235,-0.00172805786132813,-0.00635957717895508,0.00489374995231628,0.00820848307928936
2.311968235,0.00081634521484375,-0.00230503082275391,0.00868520140647888,0.00902287703976656
2.316968235,-0.00363445281982422,-0.0134373903274536,0.00731435418128967,0.0157249001014703
2.321968235,-0.00228977203369141,-0.0203330516815186,0.000253081321716309,0.0204631399546839
2.326968235,-0.001861572265625,-0.0065152645111084,-0.00519582629203796,0.0085387782385354
2.331968235,-0.00638866424560547,-0.004447340965271,0.00846952199935913,0.0115033332300722
2.336968235,-0.00451946258544922,-0.000584125518798828,0.00115332007408142,0.00470073312114893
2.341968235,-0.00681209564208984,-0.00646185874938965,-0.00522416830062866,0.0107448685411845
2.346968235,-0.00756931304931641,0.000417470932006836,-0.00430911779403687,0.00871993567525056
2.351968235,0.00228500366210938,-0.00542306900024414,-0.00971025228500366,0.0113542907552908
2.356968235,0.0115566253662109,-0.00697648525238037,0.00451615452766419,0.0142345561240726
2.361968235,-0.00631809234619141,-0.0135895013809204,0.00904500484466553,0.0175044266206312
2.366968235,-0.00627517700195313,-0.00815761089324951,0.0110187828540802,0.0150777331677171
2.371968235,0.00194549560546875,-0.0109081268310547,0.00853052735328674,0.0139836361880037
2.376968235,0.0115203857421875,-0.00725746154785156,0.0151708126068115,0.0203848863356736
2.381968235,-0.000387191772460938,-0.010301947593689,0.0145441293716431,0.0178272751947926
2.386968235,-0.00201129913330078,-0.00670826435089111,-0.0013006329536438,0.00712304575902452
2.391968235,-0.00392246246337891,-0.00931990146636963,-0.00944167375564575,0.0138344309036369
2.396968235,0.00116062164306641,0.00235998630523682,0.00280636548995972,0.00384607140111781
2.401968235,-0.00440502166748047,-0.00587069988250732,0.00288411974906921,0.00788590386248875
2.406968235,-0.00992298126220703,-0.00584626197814941,-0.00254502892494202,0.0117949781040941
2.411968235,-0.00651454925537109,0.00305795669555664,-0.018134593963623,0.0195103549270132
2.416968235,-0.00515174865722656,-0.0016254186630249,-0.0211794078350067,0.0218574887921483
2.421968235,0.000760078430175781,-0.00454151630401611,-0.00763392448425293,0.00891514961124821
2.426968235,-0.00188446044921875,-0.00953400135040283,-0.0154845118522644,0.0182816432586644
2.431968235,0.00338935852050781,-0.00532567501068115,-0.0141627490520477,0.0155059351930547
2.436968235,-0.00410938262939453,-0.00365889072418213,-0.0304999649524689,0.030992295317193
2.441968235,-0.0106449127197266,-0.0101674795150757,-0.0184949040412903,0.0236379627294024
2.446968235,0.00641155242919922,-0.00677037239074707,0.0191109180450439,0.0212643630373954
2.451968235,-0.00185489654541016,-0.0122092962265015,0.00229156017303467,0.0125602071466706
2.456968235,0.00151824951171875,-0.00767207145690918,-0.0132913291454315,0.0154215820353151
2.461968235,-0.0000314712524414063,-0.0101096630096436,0.00398269295692444,0.0108659155066391
2.466968235,-0.00807857513427734,-0.0138187408447266,0.0185077786445618,0.0244695493438268
2.471968235,0.00779914855957031,-0.000719428062438965,0.0295281112194061,0.0305492004343304
2.476968235,-0.00942897796630859,-0.00587689876556397,0.0146332383155823,0.0183732204088027
2.481968235,-0.002777099609375,-0.00991761684417725,0.00596430897712708,0.0119014447729231
2.486968235,0.00559425354003906,-0.00981152057647705,0.000839471817016602,0.0113254722473033
2.491968235,0.0114517211914063,-0.00343549251556397,0.00572702288627625,0.0132568215726897
2.496968235,0.0120506286621094,-0.00404953956604004,0.00172063708305359,0.0128287572983729
2.501968235,0.00802803039550781,-0.0142630338668823,0.0199472904205322,0.0258026704478449
2.506968235,-0.0110292434692383,-0.0133119821548462,0.00411662459373474,0.0177707534573079
2.511968235,-0.00611686706542969,-0.0156747102737427,-0.00362986326217651,0.0172130332063821
2.516968235,-0.00150108337402344,-0.0184845924377441,-0.0033586323261261,0.0188471170205784
2.521968235,-0.00294399261474609,-0.00908553600311279,-0.00307366251945496,0.0100330184024072
2.526968235,0.00664615631103516,-0.0211770534515381,0.00123849511146545,0.0222299990270161
2.531968235,0.0124692916870117,-0.0183804035186768,-0.00745612382888794,0.0234289618045033
2.536968235,-0.00160312652587891,-0.0154300928115845,-0.0110566020011902,0.0190500978119486
2.541968235,-0.00500583648681641,-0.0195620059967041,-0.00536400079727173,0.0208926537831115
2.546968235,-0.00600528717041016,-0.0183159112930298,0.000302940607070923,0.0192776516594901
2.551968235,-0.00481700897216797,-0.0225850343704224,0.00264853239059448,0.0232443988258491
2.556968235,-0.0103302001953125,-0.00583517551422119,-0.00138235092163086,0.0119445888764551
2.561968235,-0.00611209869384766,-0.0177338123321533,0.0115514397621155,0.022029108262777
2.566968235,-0.0100679397583008,-0.0221636295318604,-0.00369167327880859,0.0246215015098551
2.571968235,-0.017735481262207,-0.0111240148544312,0.00398615002632141,0.0213115084899226
2.576968235,-0.00583076477050781,-0.0064467191696167,-0.00452914834022522,0.00980159122534006
2.581968235,0.004486083984375,-0.0170654058456421,0.000158399343490601,0.0176459093430562
2.586968235,-0.000034332275390625,-0.00843226909637451,0.00262418389320374,0.0088312333184078
2.591968235,0.0028076171875,-0.0120906829833984,-0.0108765959739685,0.0165035653498732
2.596968235,-0.00947093963623047,-0.011960506439209,0.00361829996109009,0.0156794294055589
2.601968235,-0.00764942169189453,-0.0118327140808105,0.00533458590507507,0.0150660074843093
2.606968235,-0.0104217529296875,-0.0171353816986084,0.0187777280807495,0.0274743027565582
2.611968235,0.000234603881835938,-0.0104564428329468,-0.000808209180831909,0.0104902544192235
2.616968235,-0.00475502014160156,-0.0153335332870483,-0.00311890244483948,0.0163540518548915
2.621968235,-0.00119209289550781,-0.0116558074951172,0.0222654938697815,0.0251601103157364
2.626968235,-0.00673294067382813,-0.0147095918655396,0.0295368432998657,0.033676842118715
2.631968235,-0.00821590423583984,-0.0110725164413452,0.023648589849472,0.0273743950549579
2.636968235,0.00303363800048828,-0.0138267278671265,0.00940975546836853,0.0169977898858666
2.641968235,-0.00206947326660156,-0.0156757831573486,0.00881665945053101,0.0181037670407026
2.646968235,0.0034332275390625,-0.0155806541442871,0.00214558839797974,0.016098055300949
2.651968235,0.00730419158935547,-0.0139924287796021,-0.00224372744560242,0.0159428225473533
2.656968235,-0.00551509857177734,-0.00498712062835693,0.00370636582374573,0.00830811844147844
2.661968235,0.000850677490234375,-0.015297532081604,0.00312131643295288,0.0156358804118833
2.666968235,0.00584506988525391,-0.00933218002319336,0.00519153475761414,0.0121740075196423
2.671968235,0.00769519805908203,-0.0166835784912109,-0.00590178370475769,0.0192973810486978
2.676968235,-0.00493431091308594,-0.00600790977478027,-0.0033184289932251,0.00845306897120663
2.681968235,-0.00732612609863281,-0.0177342891693115,0.00348448753356934,0.0195017637490928
2.686968235,0.0121126174926758,-0.00507450103759766,-0.0158855020999908,0.0206110465593882
2.691968235,0.0042572021484375,-0.00718522071838379,-0.00354954600334168,0.00907471452633037
2.696968235,-0.00387001037597656,-0.0036090612411499,0.000659137964248657,0.00533261345012468
2.701968235,-0.013209342956543,-0.0192067623138428,0.00865700840950012,0.0248662472948006
2.706968235,-0.00105762481689453,-0.00976228713989258,-0.00716832280158997,0.0121575356155274
2.711968235,-0.00336742401123047,-0.00931596755981445,0.00734728574752808,0.0123332641219896
2.716968235,0.00433158874511719,-0.00772452354431152,0.00980201363563538,0.0132102383156638
2.721968235,-0.00313282012939453,-0.00439655780792236,0.0109840333461761,0.0122390061308691
2.726968235,0.00556850433349609,-0.00434362888336182,-0.00614950060844421,0.00936438519721373
2.731968235,0.000946998596191406,-0.00821316242218018,-0.00190040469169617,0.00848318226295544
2.736968235,-0.00543785095214844,-0.023186206817627,0.00134375691413879,0.0238532197451801
2.741968235,-0.00461387634277344,0.004638671875,-0.0114597082138062,0.0131958343433031
2.746968235,-0.00221920013427734,-0.00419270992279053,-0.0129197239875793,0.0137631004373243
2.751968235,-0.00534820556640625,-0.016048789024353,0.00578081607818604,0.0178769339221956
2.756968235,-0.00208568572998047,-0.00860607624053955,-0.00375029444694519,0.00961661799496119
2.761968235,-0.000528335571289063,-0.00794351100921631,-0.0038418173789978,0.00883957388130217
2.766968235,-0.000354766845703125,0.000562429428100586,-0.00386273860931397,0.0039195581307449
2.771968235,0.00719165802001953,-0.0163322687149048,-0.00296652317047119,0.0180904175234767
2.776968235,-0.000575065612792969,-0.00847101211547852,0.000875413417816162,0.0085355196310297
2.781968235,-0.000569343566894531,-0.00838279724121094,0.0109305679798126,0.0137866877111844
2.786968235,-0.0105009078979492,-0.00497937202453613,-0.0000672340393066406,0.0116218644311482
2.791968235,-0.010589599609375,-0.0117268562316895,0.0120045244693756,0.0198435728814502
2.796968235,0.0129432678222656,-0.00756418704986572,-0.0032743513584137,0.0153449172191511
2.801968235,-0.0109672546386719,0.00618565082550049,0.0139634907245636,0.0188021813537541
2.806968235,-0.0164270401000977,0.000736117362976074,0.00644895434379578,0.0176629138975044
2.811968235,-0.0218467712402344,-0.00552606582641602,-0.00210168957710266,0.0226326294588039
2.816968235,-0.0169811248779297,-0.00678634643554688,0.00257164239883423,0.0184669013288798
2.821968235,-0.00151824951171875,0.0130074024200439,-0.0116492807865143,0.0175272171818532
2.826968235,0.00481319427490234,-0.00377631187438965,0.00949710607528687,0.0112970082015487
2.831968235,0.00149631500244141,-0.00606238842010498,-0.00381490588188171,0.0073174461959327
2.836968235,-0.00949001312255859,-0.00252890586853027,-0.0183486938476563,0.0208117822368302
2.841968235,-0.00671291351318359,-0.00823688507080078,0.000823557376861572,0.0106577544660236
2.846968235,-0.00110435485839844,0.00590527057647705,0.00464940071105957,0.00759662735736557
2.851968235,0.00877857208251953,0.00649654865264893,0.00101116299629211,0.0109677218605003
2.856968235,0.00480937957763672,-0.0125577449798584,0.00627371668815613,0.0148386863294632
2.861968235,0.00119876861572266,-0.00806009769439697,0.00833433866500855,0.0116560465862282
2.866968235,-0.00748538970947266,-0.0000102519989013672,-0.000788301229476929,0.0075267910183926
2.871968235,-0.00468063354492188,-0.000264286994934082,-0.000639200210571289,0.00473146435120604
2.876968235,0.0134201049804688,-0.0152242183685303,0.00140285491943359,0.0203431571921488
2.881968235,-0.00312995910644531,0.00912976264953613,0.00143399834632874,0.009757333718909
2.886968235,-0.0142288208007813,0.00953102111816406,-0.0103738903999329,0.0200229195415018
2.891968235,-0.0115365982055664,-0.00465750694274902,0.00980880856513977,0.0158429225380292
2.896968235,0.00384998321533203,0.000250339508056641,-0.00418415665626526,0.00569141525033987
2.901968235,0.0202188491821289,0.00789928436279297,-0.00873884558677673,0.0234001704669745
2.906968235,0.0237369537353516,-0.00511503219604492,-0.00687137246131897,0.0252353380501029
2.911968235,-0.00809669494628906,0.00541245937347412,0.00570422410964966,0.0112866894267486
2.916968235,-0.017359733581543,0.00601851940155029,-0.0132266879081726,0.0226390856447249
2.921968235,0.00360679626464844,0.00455343723297119,-0.0130099654197693,0.0142478759874194
2.926968235,0.0237083435058594,0.00333130359649658,0.00165551900863647,0.0239984140857643
2.931968235,0.0144929885864258,0.0028235912322998,0.00378701090812683,0.0152433866719853
2.936968235,-0.00609779357910156,0.00871777534484863,-0.00555086135864258,0.0119997814696541
2.941968235,-0.0190258026123047,0.00586867332458496,-0.00269201397895813,0.020091526345601
2.946968235,-0.00284576416015625,-0.00382256507873535,-0.00513467192649841,0.00700537174096905
2.951968235,0.00936317443847656,-0.0053030252456665,-0.000229507684707642,0.0107630751227917
2.956968235,0.00928401947021484,-0.0130907297134399,-0.00264871120452881,0.0162657890370761
2.961968235,0.00609874725341797,-0.0147881507873535,0.00592103600502014,0.0170570451468982
2.966968235,-0.00733375549316406,0.00651288032531738,0.00655931234359741,0.0117994134678928
2.971968235,-0.014500617980957,0.00116610527038574,-0.00197950005531311,0.0146814898358532
2.976968235,0.00690841674804688,-0.00765073299407959,-0.000243157148361206,0.0103111135533555
2.981968235,0.0171470642089844,0.00268042087554932,-0.00810259580612183,0.0191535512596097
2.986968235,-0.00292778015136719,0.00567698478698731,0.000515103340148926,0.00640822786247942
2.991968235,-0.0257606506347656,0.00581681728363037,-0.012917160987854,0.0293989716218736
2.996968235,-0.00858211517333984,-0.00567924976348877,-0.00771906971931458,0.0128643156077654
3.001968235,0.00479984283447266,0.0056157112121582,0.0125612318515778,0.0145725512276708
3.006968235,0.0140981674194336,-0.00000977516174316406,-0.00616839528083801,0.0153885516043853
3.011968235,0.00722980499267578,-0.00555860996246338,-0.00447386503219605,0.0101579374517282
3.016968235,-0.0125446319580078,-0.00608313083648682,-0.00145173072814941,0.0140171250205861
3.021968235,-0.0125875473022461,-0.0104165077209473,-0.00801703333854675,0.0181995275690939
3.026968235,0.00684261322021484,0.00320613384246826,-0.00667914748191834,0.0100852199273241
3.031968235,0.0138969421386719,0.0150554180145264,0.0311428308486938,0.0372782312572375
3.036968235,0.00430774688720703,0.00741088390350342,0.0050395131111145,0.00994356957397809
3.041968235,-0.0181245803833008,-0.00570201873779297,-0.00812315940856934,0.0206639577654887
3.046968235,-0.0135078430175781,0.00176000595092773,-0.000602066516876221,0.0136353191391173
3.051968235,0.00200462341308594,0.000107049942016602,0.0114966034889221,0.0116705555351866
3.056968235,0.00887870788574219,0.000266432762145996,0.00857645273208618,0.0123473876428496
3.061968235,0.0216712951660156,-0.00391721725463867,-0.0059712827205658,0.0228176651417611
3.066968235,-0.0119771957397461,-0.00277483463287354,-0.00144615769386292,0.0123791880631771
3.071968235,-0.0192060470581055,0.00471746921539307,0.00426205992698669,0.020230964243396
3.076968235,-0.00826930999755859,-0.000403881072998047,0.01017826795578,0.0131202799641055
3.081968235,0.00349998474121094,-0.00863313674926758,0.00807768106460571,0.0123300395255552
3.086968235,0.0176477432250977,-0.00422537326812744,-0.00058293342590332,0.018155892475255
3.091968235,0.00782585144042969,0.00138914585113525,0.000110417604446411,0.00794895395701682
3.096968235,-0.0132741928100586,0.00338983535766602,0.0117213428020477,0.0180301152407246
3.101968235,-0.0179023742675781,-0.0117535591125488,-0.00419557094573975,0.0218230147273322
3.106968235,0.00728702545166016,-0.00874638557434082,0.0125953853130341,0.0169777422448326
3.111968235,0.0261383056640625,0.00470173358917236,0.000642895698547363,0.0265655912151551
3.116968235,0.00174999237060547,0.00583052635192871,0.00696742534637451,0.00925216335756208
3.121968235,-0.0140352249145508,0.00533425807952881,-0.00592982769012451,0.0161432556845146
3.126968235,-0.00708198547363281,0.00231850147247314,0.00218859314918518,0.00776658916766341
3.131968235,0.00617122650146484,0.00157594680786133,0.00834605097770691,0.0104987719184709
3.136968235,0.0140962600708008,-0.0037461519241333,0.00295457243919373,0.0148817909043496
3.141968235,0.00658798217773438,0.0000638961791992188,0.00652790069580078,0.00927464713022001
3.146968235,-0.0226068496704102,-0.00338304042816162,-0.00160607695579529,0.022914931763962
3.151968235,-0.0185098648071289,-0.00717461109161377,0.00146213173866272,0.0199054758474974
3.156968235,-0.00728225708007813,-0.000154256820678711,-0.0042252242565155,0.00842066406911717
3.161968235,0.00305080413818359,-0.00570714473724365,0.000304818153381348,0.00647856628028431
3.166968235,-0.00763988494873047,0.00377857685089111,-0.00236073136329651,0.0088441244686843
3.171968235,-0.00932025909423828,-0.000633835792541504,-0.00625276565551758,0.0112412657533953
3.176968235,-0.0230579376220703,0.0150449275970459,-0.0210976600646973,0.0346861585360668
3.181968235,-0.0151634216308594,0.0134660005569458,-0.0153631567955017,0.0254418771571213
3.186968235,0.00386333465576172,-0.00033104419708252,-0.00868615508079529,0.00951232016967771
3.191968235,-0.00171661376953125,-0.00129389762878418,-0.0142576992511749,0.0144188391295718
3.196968235,-0.0134382247924805,0.00428211688995361,-0.019819974899292,0.0243259905377156
3.201968235,-0.0143709182739258,-0.00189423561096191,-0.025347113609314,0.0291991025360226
3.206968235,-0.00868988037109375,0.00115275382995605,-0.0167160332202911,0.0188750795727667
3.211968235,-0.00625801086425781,-0.000470757484436035,-0.00721251964569092,0.00956058325761555
3.216968235,0.010467529296875,0.0138915777206421,-0.00735726952552795,0.0188858284441228
3.221968235,0.0151271820068359,0.00590229034423828,-0.00758540630340576,0.0179222502929564
3.226968235,0.000726699829101563,0.00444555282592773,-0.00460141897201538,0.0064392615357472
3.231968235,0.0000848770141601563,0.00202548503875732,0.00472021102905273,0.00513713791021358
3.236968235,0.0153465270996094,0.00619137287139893,0.0295850932598114,0.0338987718840001
3.241968235,0.032231330871582,0.00743257999420166,0.0316048264503479,0.0457489561638319
3.246968235,0.0242471694946289,-0.00631701946258545,0.0458753407001495,0.0522721421767536
3.251968235,0.0116491317749023,-0.00554704666137695,0.0437044203281403,0.0455691601194414
3.256968235,0.00356864929199219,-0.00442731380462647,0.0493397414684296,0.0496663513202383
3.261968235,-0.00319576263427734,-0.00701463222503662,0.0462138652801514,0.0468523137977106
3.266968235,0.0236978530883789,-0.017441987991333,0.062725156545639,0.0692838830447826
3.271968235,0.0124015808105469,-0.0255089998245239,0.047194242477417,0.0550618270825199
3.276968235,0.00475120544433594,-0.0180104970932007,0.0392656326293945,0.0434596578967788
3.281968235,0.00729274749755859,-0.0119943618774414,0.0328948795795441,0.0357648149088301
3.286968235,0.00259685516357422,-0.0119621753692627,0.0258141160011292,0.0285693171291392
3.291968235,0.00404739379882813,-0.00778090953826904,0.0273419618606567,0.0287142269301321
3.296968235,0.00479412078857422,-0.00728917121887207,-0.00153332948684692,0.00885814373944715
3.301968235,0.00598907470703125,-0.00737249851226807,-0.0200369358062744,0.0221743443344907
3.306968235,0.00238418579101563,-0.00930213928222656,-0.0247368216514587,0.0265353440250565
3.311968235,0.00842380523681641,-0.0148411989212036,-0.0292356908321381,0.0338518433548147
3.316968235,0.0111865997314453,-0.00281679630279541,-0.0372203588485718,0.0389670305229879
3.321968235,-0.00363731384277344,0.00651323795318604,-0.0471552312374115,0.0477416815129024
3.326968235,-0.00504875183105469,-0.00253057479858398,-0.0603398382663727,0.0606035459843302
3.331968235,-0.00883293151855469,-0.00358140468597412,-0.0514682531356812,0.0523433684393233
3.336968235,-0.0338029861450195,-0.00308024883270264,-0.0480007529258728,0.0587894725834688
3.341968235,-0.0363187789916992,0.00256955623626709,-0.0303636789321899,0.0474089582779072
3.346968235,-0.0343942642211914,0.0241343975067139,-0.0310293436050415,0.0522326977944748
3.351968235,-0.0197610855102539,0.0264726877212524,-0.0107860565185547,0.0347511540952523
3.356968235,-0.027592658996582,0.0306569337844849,-0.0169982016086578,0.0446109995124132
3.361968235,-0.0205364227294922,0.0278488397598267,0.00221094489097595,0.0346726233764311
3.366968235,-0.00716590881347656,0.0206830501556397,0.0275400876998901,0.0351794719031057
3.371968235,0.0037994384765625,0.0233714580535889,0.0288394689559937,0.0373145515040925
3.376968235,0.00565719604492188,0.0176724195480347,0.0334155559539795,0.038221952585994
3.381968235,0.0146465301513672,0.0334421396255493,0.0354343354701996,0.0508772019516039
3.386968235,0.0144901275634766,0.0246776342391968,0.0278299450874329,0.039918107069586
3.391968235,0.0143337249755859,0.0190198421478272,0.0209844410419464,0.0317420357388578
3.396968235,0.0134878158569336,0.000993609428405762,0.0325095057487488,0.0352104586779936
3.401968235,0.00950908660888672,-0.0101485252380371,0.0174658000469208,0.022326429717297
3.406968235,0.0223264694213867,-0.00976347923278809,0.00379523634910584,0.0246617230237219
3.411968235,0.0102710723876953,-0.0178964138031006,0.0151428580284119,0.025594583494828
3.416968235,0.00700283050537109,-0.0194424390792847,-0.00250723958015442,0.0208166837596901
3.421968235,0.0162668228149414,-0.00470447540283203,0.0070507824420929,0.0183427137129236
3.426968235,0.0118541717529297,-0.0131858587265015,0.0104081630706787,0.0205601098442847
3.431968235,0.0111255645751953,-0.0112395286560059,0.00755354762077332,0.0175260170371168
3.436968235,0.00156784057617188,-0.00894200801849365,0.014066755771637,0.0167419010095621
3.441968235,0.00922107696533203,-0.0221388339996338,0.00684937834739685,0.0249413354696517
3.446968235,0.0131921768188477,-0.016610860824585,0.0105955898761749,0.0237111946425644
3.451968235,0.00750160217285156,-0.014081597328186,0.0110499858856201,0.0194079263844778
3.456968235,-0.00288963317871094,-0.0123720169067383,0.0179533064365387,0.0219940445178322
3.461968235,-0.016357421875,-0.0170475244522095,0.00886175036430359,0.0252331916305616
3.466968235,-0.0153741836547852,-0.00564670562744141,0.00531360507011414,0.0172187457828723
3.471968235,-0.0238895416259766,0.00687742233276367,-0.013915479183197,0.0284894664383251
3.476968235,-0.0134601593017578,0.00382566452026367,-0.00282344222068787,0.0142752731470842
3.481968235,-0.00947666168212891,0.00819873809814453,-0.0113889276981354,0.0169332246531147
3.486968235,-0.00445365905761719,0.00937628746032715,-0.0161893963813782,0.019231391024405
3.491968235,-0.00973606109619141,0.0259271860122681,-0.0351354777812958,0.0447382572202299
3.496968235,-0.00586032867431641,0.025973916053772,-0.0117871761322021,0.0291191567273327
3.501968235,0.00054931640625,0.0295201539993286,-0.0263840556144714,0.0395962072846097
3.506968235,0.00877857208251953,0.0172271728515625,-0.0192444026470184,0.0272797698946705
3.511968235,0.00846672058105469,0.00220990180969238,-0.0387127995491028,0.0396894176366339
3.516968235,0.00664043426513672,-0.00370669364929199,-0.0319216549396515,0.0328150422691405
3.521968235,0.00347995758056641,-0.0137563943862915,-0.0295414328575134,0.0327726219053146
3.526968235,0.00483417510986328,-0.0260463953018188,-0.026892751455307,0.0377492256615728
3.531968235,0.0235376358032227,-0.0169179439544678,0.0104831457138062,0.030824235122847
3.536968235,0.0167465209960938,-0.00984501838684082,0.00642648339271545,0.0204614281345826
3.541968235,0.00925731658935547,-0.0114610195159912,0.0226089060306549,0.0269854685096344
3.546968235,0.00117015838623047,-0.0000308752059936523,0.0245348811149597,0.0245627892400765
3.551968235,-0.00155067443847656,-0.00839710235595703,0.0385543704032898,0.0394886742799076
3.556968235,-0.0131397247314453,-0.016457200050354,0.0159164071083069,0.0263974206079475
3.561968235,-0.00385093688964844,-0.00707411766052246,0.0371496975421906,0.0380127989377158
3.566968235,0.0035552978515625,-0.00506377220153809,0.0407000780105591,0.0411676849214039
3.571968235,-0.00654029846191406,-0.0123447179794312,0.0297133922576904,0.0328337211631881
3.576968235,-0.00093841552734375,-0.0123921632766724,0.0182016491889954,0.022039654434154
3.581968235,0.02020263671875,-0.019548773765564,0.00966504216194153,0.0297273296163496
3.586968235,0.0237884521484375,-0.021675705909729,0.00190997123718262,0.0322393342429776
3.591968235,0.00176334381103516,0.003226637840271,-0.0104002058506012,0.0110310858433367
3.596968235,-0.114828109741211,0.020667552947998,-0.0264788568019867,0.119640178824415
3.601968235,-0.409731864929199,0.0651658773422241,-0.0223762989044189,0.41548464648023
3.606968235,-0.805027008056641,0.132568597793579,-0.0441921353340149,0.817065396187455
3.611968235,-1.01621723175049,0.173376679420471,-0.0498985052108765,1.03210793810327
3.616968235,-0.879132270812988,0.147349834442139,-0.0325421690940857,0.891989078444504
3.621968235,-0.615493774414063,0.112603306770325,-0.047445148229599,0.627505484540661
3.626968235,-0.491498947143555,0.112993478775024,-0.0554071664810181,0.507354605169166
3.631968235,-0.501041412353516,0.116260528564453,-0.0672455430030823,0.518730151860359
3.636968235,-0.503036499023438,0.1091228723526,-0.0578054487705231,0.517971997822083
3.641968235,-0.410337448120117,0.096630334854126,-0.0150435566902161,0.421830003131169
3.646968235,-0.212568283081055,0.0619022846221924,-0.00652584433555603,0.221494366650184
3.651968235,0.0257282257080078,0.0304552316665649,0.0327214598655701,0.0515767066579522
3.656968235,0.230131149291992,-0.00944483280181885,0.0740096867084503,0.241923509539256
3.661968235,0.382637977600098,-0.0238139629364014,0.0813662707805634,0.39191758923703
3.666968235,0.445992469787598,-0.046049952507019,0.081635594367981,0.455734847801826
3.671968235,0.412374496459961,-0.0374287366867065,0.0597139596939087,0.418353191266536
3.676968235,0.261192321777344,-0.00849699974060059,0.063834547996521,0.269013898298864
3.681968235,0.0764122009277344,0.0304775238037109,0.0247413218021393,0.0859059771630777
3.686968235,-0.0769062042236328,0.0487728118896484,-0.00968462228775024,0.091581348191466
3.691968235,-0.18153190612793,0.0749410390853882,-0.0193874537944794,0.197347069008562
3.696968235,-0.294650077819824,0.0832328796386719,-0.0126929581165314,0.306443292956335
3.701968235,-0.393126487731934,0.0997564792633057,-0.00986042618751526,0.405705581075804
3.706968235,-0.412558555603027,0.0979235172271729,0.00063091516494751,0.424021196500059
3.711968235,-0.430872917175293,0.11081862449646,-0.0138296484947205,0.445110657553739
3.716968235,-0.493743896484375,0.11853039264679,-0.0274046957492828,0.50851106836104
3.721968235,-0.597460746765137,0.147533774375916,-0.0420784652233124,0.616843704468407
3.726968235,-0.726349830627441,0.160239458084106,-0.0613477528095245,0.746340610682803
3.731968235,-0.870219230651856,0.173770546913147,-0.0780407190322876,0.890824374496948
3.736968235,-0.931106567382813,0.191370368003845,-0.0764720737934113,0.953640412127966
3.741968235,-0.824211120605469,0.175756216049194,-0.0895600616931915,0.847487594870947
3.746968235,-0.664753913879395,0.157394289970398,-0.0938022136688232,0.689543025359862
3.751968235,-0.662544250488281,0.149868607521057,-0.0738547146320343,0.683286178880239
3.756968235,-0.806957244873047,0.159490942955017,-0.0648826956748962,0.825122487959103
3.761968235,-0.846512794494629,0.176296949386597,-0.0585831105709076,0.86665824085985
3.766968235,-0.509352684020996,0.123284816741943,-0.0292414724826813,0.524875572370674
3.771968235,0.0508346557617188,0.0330806970596314,0.0162604749202728,0.0627924978719303
3.776968235,0.642935752868652,-0.0581926107406616,0.0944985449314117,0.652443665963391
3.781968235,0.993234634399414,-0.124892354011536,0.141358733177185,1.01098735427627
3.786968235,1.15187835693359,-0.166419744491577,0.148606419563293,1.17328732562152
3.791968235,1.22958278656006,-0.18376100063324,0.109651014208794,1.24806461342174
3.796968235,1.39429569244385,-0.215727090835571,0.117323100566864,1.415755404586
3.801968235,1.63430404663086,-0.26194429397583,0.141842067241669,1.66122957535071
3.806968235,1.7485203742981,-0.29460883140564,0.145385354757309,1.77911628744601
3.811968235,1.71327257156372,-0.299719452857971,0.131249129772186,1.74423650602778
3.816968235,1.5583553314209,-0.270472764968872,0.0780417919158936,1.58357739843788
3.821968235,1.3623161315918,-0.250807881355286,0.0668103992938995,1.38682135302243
3.826968235,1.10979461669922,-0.215601325035095,0.034758061170578,1.13107742680499
3.831968235,0.878544807434082,-0.180629014968872,0.0102322399616241,0.896979664458813
3.836968235,0.663291931152344,-0.145897507667542,-0.000725150108337402,0.679148580590496
3.841968235,0.488232612609863,-0.11488139629364,-0.0413859486579895,0.50327091707802
3.846968235,0.270417213439941,-0.0754026174545288,-0.0475269556045532,0.284727651542055
3.851968235,0.0719289779663086,-0.0516631603240967,-0.0347091257572174,0.0951187858247852
3.856968235,-0.0244626998901367,-0.0274934768676758,-0.0496154427528381,0.0617738384411109
3.861968235,-0.0371484756469727,-0.021178126335144,-0.0396927297115326,0.0583441091277759
3.866968235,0.026026725769043,-0.0365810394287109,-0.0513724982738495,0.0682253360478242
3.871968235,0.13629150390625,-0.0546097755432129,-0.0357469320297241,0.151114012492042
3.876968235,0.263487815856934,-0.083238959312439,-0.0250058770179749,0.277452423557469
3.881968235,0.361926078796387,-0.104893922805786,-0.0435405969619751,0.379327042455873
3.886968235,0.494672775268555,-0.122502088546753,-0.0207458436489105,0.510037553831986
3.891968235,0.625783920288086,-0.134679436683655,-0.0155123770236969,0.640300475868539
3.896968235,0.776787757873535,-0.164452314376831,-0.00973191857337952,0.794064540654731
3.901968235,0.845127105712891,-0.168141841888428,-0.00563180446624756,0.861709475998626
3.906968235,0.834528923034668,-0.155727624893188,0.00033944845199585,0.848934468472996
3.911968235,0.68409538269043,-0.135943531990051,-0.0240673422813416,0.697887077880643
3.916968235,0.549579620361328,-0.115403652191162,-0.0283679962158203,0.562281517804792
3.921968235,0.42884349822998,-0.0836762189865112,-0.0425525307655335,0.438997919667688
3.926968235,0.329151153564453,-0.0695681571960449,-0.0516387224197388,0.340362700720286
3.931968235,0.214098930358887,-0.0635805130004883,-0.0516064167022705,0.229224902353721
3.936968235,0.0759735107421875,-0.0439684391021729,-0.0334765613079071,0.0939461448308382
3.941968235,-0.0563459396362305,-0.00853574275970459,-0.0142910480499268,0.0587533647744101
3.946968235,-0.177013397216797,0.00766360759735107,0.00798559188842773,0.177359080267818
3.951968235,-0.231572151184082,0.00380825996398926,0.0552840232849121,0.238110241859823
3.956968235,-0.242830276489258,0.00425374507904053,0.0559033751487732,0.249218428050719
3.961968235,-0.21159839630127,0.000915288925170898,0.0623376667499542,0.220591712824653
3.966968235,-0.199671745300293,0.0279361009597778,0.0684681534767151,0.212925150343051
3.971968235,-0.148683547973633,-0.00277054309844971,0.0742112994194031,0.166198045441588
3.976968235,-0.155601501464844,0.0122992992401123,0.0620867908000946,0.16798175380608
3.981968235,-0.121685028076172,0.0185509920120239,0.0398081243038178,0.129367971782498
3.986968235,-0.0778751373291016,0.0243697166442871,0.0200652182102203,0.0840299534997672
3.991968235,-0.0940465927124023,0.0326113700866699,0.037999153137207,0.10654669726879
3.996968235,-0.260829925537109,0.0566906929016113,0.0309324264526367,0.268705972623622
4.001968235,-0.413345336914063,0.0675617456436157,0.030905693769455,0.41996918807263
4.006968235,-0.498750686645508,0.0845108032226563,0.0493479371070862,0.508261293221734
4.011968235,-0.531818389892578,0.0944957733154297,0.0489597022533417,0.542362704697835
4.016968235,-0.571402549743652,0.10060453414917,0.056259959936142,0.582912797283552
4.021968235,-0.608246803283691,0.10075318813324,0.0519658625125885,0.618721124167034
4.026968235,-0.606368064880371,0.0869797468185425,0.0546369850635529,0.615006428096665
4.031968235,-0.575381278991699,0.0779881477355957,0.053286999464035,0.583082559946045
4.036968235,-0.542080879211426,0.0638976097106934,0.030874103307724,0.546706314567912
4.041968235,-0.482888221740723,0.048485279083252,0.0292787551879883,0.486198624524028
4.046968235,-0.411232948303223,0.0402143001556397,0.00303846597671509,0.41320571145939
4.051968235,-0.355733871459961,0.017452597618103,-0.0078214704990387,0.356247604719356
4.056968235,-0.356122970581055,0.0124576091766357,-0.0163971781730652,0.356717857211987
4.061968235,-0.397491455078125,0.0139656066894531,-0.0303665697574615,0.398894251135767
4.066968235,-0.436290740966797,0.0148961544036865,-0.00477486848831177,0.436571077189563
4.071968235,-0.518487930297852,0.0342583656311035,-0.0192794799804688,0.519976026205614
4.076968235,-0.601823806762695,0.03528892993927,-0.000342100858688355,0.602857628296763
4.081968235,-0.684139251708984,0.0348758697509766,-0.00238561630249023,0.68503177531043
4.086968235,-0.767969131469727,0.0450663566589356,-0.00482994318008423,0.769305460622762
4.091968235,-0.841801643371582,0.0553654432296753,-0.0137452185153961,0.843732345071084
4.096968235,-0.844685554504395,0.0554159879684448,-0.0453497171401978,0.847715290976641
4.101968235,-0.815576553344727,0.05519700050354,-0.0310852229595184,0.818033076541954
4.106968235,-0.732924461364746,0.0311245918273926,-0.0286027193069458,0.734142439745161
4.111968235,-0.618495941162109,0.0168441534042358,-0.034890741109848,0.619708252771498
4.116968235,-0.513755798339844,0.0026857852935791,-0.0383016467094421,0.515188557628281
4.121968235,-0.34822940826416,-0.0183346271514893,-0.0446323454380035,0.351556433011954
4.126968235,-0.199384689331055,-0.0423457622528076,-0.0358139276504517,0.206954234878546
4.131968235,-0.0605907440185547,-0.062751054763794,-0.0569778084754944,0.104189269089292
4.136968235,0.0614070892333984,-0.0712342262268066,-0.0670112371444702,0.115480091348608
4.141968235,0.185389518737793,-0.0889023542404175,-0.0628008842468262,0.21498105337332
4.146968235,0.3323974609375,-0.0974205732345581,-0.0548052191734314,0.350688540125985
4.151968235,0.449858665466309,-0.112988710403442,-0.0636893510818481,0.468183298522051
4.156968235,0.625138282775879,-0.123289704322815,-0.0492264032363892,0.639078604366923
4.161968235,0.818926811218262,-0.160048842430115,-0.0458517968654633,0.835678850618539
4.166968235,0.907466888427734,-0.165988087654114,-0.0336598753929138,0.923136602051533
4.171968235,0.855534553527832,-0.171799063682556,-0.0256847739219666,0.87299140784643
4.176968235,0.934800148010254,-0.175109386444092,-0.0357294976711273,0.951730639910605
4.181968235,1.16154766082764,-0.198800086975098,-0.0331259965896606,1.17890278420467
4.186968235,1.35351181030273,-0.229262113571167,-0.029930979013443,1.37311732960181
4.191968235,1.2616081237793,-0.215370893478394,-0.0119491815567017,1.27991502166491
4.196968235,1.21361446380615,-0.213220477104187,-0.0165395736694336,1.2323135137266
4.201968235,1.2156400680542,-0.212238788604736,-0.0508542358875275,1.23507580000376
4.206968235,1.27209854125977,-0.204438090324402,-0.0300923883914948,1.28877274307374
4.211968235,1.05118083953857,-0.165029525756836,-0.0136587619781494,1.06414400508734
4.216968235,0.952445983886719,-0.157388806343079,-0.00866720080375671,0.96540132015334
4.221968235,0.885284423828125,-0.13940441608429,-0.0472672581672668,0.897438742194223
4.226968235,0.771064758300781,-0.105324745178223,-0.0422773659229279,0.779372529096119
4.231968235,0.498916625976563,-0.0567442178726196,0.0566509962081909,0.505318752184394
4.236968235,0.196356773376465,-0.0200390815734863,0.156527519226074,0.251909530419542
4.241968235,0.0755090713500977,-0.00958752632141113,0.252833604812622,0.264042368266275
4.246968235,-0.0268888473510742,0.028843879699707,0.297633588314056,0.300234462380157
4.251968235,-0.194707870483398,0.0574167966842651,0.344583541154861,0.399932069487415
4.256968235,-0.376809120178223,0.0718827247619629,0.370141506195068,0.533063761455461
4.261968235,-0.452413558959961,0.0768634080886841,0.37934023141861,0.59538644845726
4.266968235,-0.515330314636231,0.0988121032714844,0.316335380077362,0.612696693009437
4.271968235,-0.538199424743652,0.0946779251098633,0.291567921638489,0.619382259373075
4.276968235,-0.554078102111816,0.0854048728942871,0.234642878174782,0.607744860802679
4.281968235,-0.615002632141113,0.0764076709747315,0.166844308376312,0.641797002923705
4.286968235,-0.763100624084473,0.0937000513076782,0.0699456334114075,0.772006900051092
4.291968235,-0.958456039428711,0.114760160446167,-0.0209507644176483,0.965529289287842
4.296968235,-1.07305240631104,0.125954508781433,-0.023707777261734,1.08067944538377
4.301968235,-1.13585567474365,0.120217680931091,-0.0148453116416931,1.14229627852565
4.306968235,-1.21257019042969,0.129836082458496,-0.000987231731414795,1.21950188587527
4.311968235,-1.30902099609375,0.142779231071472,-0.00820919871330261,1.31681026271181
4.316968235,-1.37085056304932,0.158678412437439,-0.0280483365058899,1.38028867052042
4.321968235,-1.42663097381592,0.148444294929504,-0.0127637982368469,1.43438996046874
4.326968235,-1.35679721832275,0.150597929954529,-0.0272307991981506,1.36540101969345
4.331968235,-1.28551483154297,0.142885088920593,-0.0252509117126465,1.29367775713085
4.336968235,-1.12623500823975,0.11618959903717,-0.0213258564472199,1.13241340016021
4.341968235,-0.931254386901856,0.0778731107711792,-0.031063586473465,0.93502080239411
4.346968235,-0.709725379943848,0.0428731441497803,-0.0307172238826752,0.711682351382121
4.351968235,-0.541347503662109,0.0374197959899902,-0.00719127058982849,0.542686903495769
4.356968235,-0.301797866821289,-0.0311707258224487,-0.0223754048347473,0.304227259310696
4.361968235,-0.0684337615966797,-0.0480890274047852,-0.0331419110298157,0.0899673304578811
4.366968235,0.164390563964844,-0.0825436115264893,-0.0353167355060577,0.187309842590613
4.371968235,0.348669052124023,-0.108685731887817,-0.0425234436988831,0.367683205339961
4.376968235,0.47038745880127,-0.0993289947509766,-0.0548973977565765,0.483884629716836
4.381968235,0.502809524536133,-0.12209153175354,-0.0546768009662628,0.520301174949742
4.386968235,0.528990745544434,-0.131733298301697,-0.0505068302154541,0.547481333610117
4.391968235,0.518732070922852,-0.112414479255676,-0.0736023783683777,0.535851926050208
4.396968235,0.531599998474121,-0.110686779022217,-0.0752890706062317,0.548195736558347
4.401968235,0.521512985229492,-0.1036057472229,-0.0745395720005035,0.536904174331519
4.406968235,0.48057746887207,-0.0955002307891846,-0.067032516002655,0.49453852819565
4.411968235,0.487123489379883,-0.0773023366928101,-0.0716365575790405,0.498394162832568
4.416968235,0.455508232116699,-0.0784268379211426,-0.043292224407196,0.464233492034464
4.421968235,0.433412551879883,-0.0892912149429321,-0.033174455165863,0.443756583803068
4.426968235,0.445438385009766,-0.0823748111724854,-0.0305993258953094,0.454023438933562
4.431968235,0.500851631164551,-0.0878746509552002,-0.0116229951381683,0.508634844202274
4.436968235,0.531391143798828,-0.0742099285125732,0.0175242722034454,0.536834016539497
4.441968235,0.537345886230469,-0.0757578611373901,0.0139961838722229,0.542840444454819
4.446968235,0.512217521667481,-0.0922496318817139,0.0540620386600494,0.523258528941066
4.451968235,0.498957633972168,-0.0842227935791016,0.0663668513298035,0.510349643296441
4.456968235,0.478232383728027,-0.0740864276885986,0.0705662965774536,0.489054816791028
4.461968235,0.443469047546387,-0.0617443323135376,0.0811124444007874,0.455034490276523
4.466968235,0.389575958251953,-0.0438106060028076,0.114394158124924,0.408380729049953
4.471968235,0.305854797363281,-0.0317517518997192,0.127945393323898,0.333054581850546
4.476968235,0.23861026763916,-0.0311260223388672,0.129905760288239,0.27345784985174
4.481968235,0.215061187744141,-0.0250244140625,0.138949155807495,0.257263296396333
4.486968235,0.264777183532715,-0.012627124786377,0.139999002218246,0.299776786662997
4.491968235,0.315201759338379,-0.0311983823776245,0.147428393363953,0.349371749463041
4.496968235,0.344334602355957,-0.0336979627609253,0.147383511066437,0.37606351911365
4.501968235,0.338634490966797,-0.0469092130661011,0.132076948881149,0.366494356257468
4.506968235,0.396470069885254,-0.0526862144470215,0.138196349143982,0.423157871750368
4.511968235,0.431389808654785,-0.0641958713531494,0.131042778491974,0.455401456634582
4.516968235,0.459858894348145,-0.0735586881637573,0.124291211366653,0.482005589737776
4.521968235,0.460098266601563,-0.0701546669006348,0.0959516167640686,0.475203961449545
4.526968235,0.426408767700195,-0.0705633163452148,0.0664578378200531,0.437287391760785
4.531968235,0.370460510253906,-0.0813417434692383,0.0529181957244873,0.382959272412792
4.536968235,0.313894271850586,-0.0635039806365967,0.0436376333236694,0.32321295224572
4.541968235,0.263936042785645,-0.0577709674835205,0.014974981546402,0.270599278339102
4.546968235,0.230630874633789,-0.0529412031173706,0.00678029656410217,0.236726305558462
4.551968235,0.213925361633301,-0.0569194555282593,-0.00245776772499084,0.221381854246824
4.556968235,0.113974571228027,-0.0550096035003662,-0.015248715877533,0.127470713106164
4.561968235,-0.0257883071899414,-0.0309748649597168,-0.0192068517208099,0.0446473089896878
4.566968235,-0.135238647460938,-0.0225419998168945,-0.0194967687129974,0.138483780685887
4.571968235,-0.205748558044434,-0.00419998168945313,-0.0212947130203247,0.206890245749222
4.576968235,-0.259228706359863,-0.010672926902771,-0.0146203637123108,0.25985994036165
4.581968235,-0.298221588134766,-0.00624680519104004,-0.0106107890605927,0.298475672457916
4.586968235,-0.372669219970703,0.00272214412689209,0.00845515727996826,0.372775062560318
4.591968235,-0.411322593688965,0.00816524028778076,0.0353021621704102,0.412915475469109
4.596968235,-0.462923049926758,0.0133703947067261,0.0331828594207764,0.464303370402848
4.601968235,-0.512053489685059,0.027445912361145,0.055213063955307,0.515752398768358
4.606968235,-0.55457878112793,0.0214354991912842,0.0747506022453308,0.560004247875817
4.611968235,-0.594370841979981,0.014797568321228,0.0907587110996246,0.601442274424302
4.616968235,-0.643222808837891,0.0295964479446411,0.113985940814018,0.653914616936724
4.621968235,-0.69826602935791,0.0452225208282471,0.124491482973099,0.710716999570268
4.626968235,-0.74509334564209,0.0487110614776611,0.148091644048691,0.761227952894169
4.631968235,-0.783472061157227,0.0597127676010132,0.148362517356873,0.799628364795168
4.636968235,-0.830915451049805,0.0701475143432617,0.149164929986,0.84710763005628
4.641968235,-0.897032737731934,0.0759754180908203,0.151715755462646,0.912939027083696
4.646968235,-0.967391014099121,0.0842599868774414,0.167553797364235,0.985403163461275
4.651968235,-0.993489265441895,0.0907614231109619,0.115560129284859,1.00429711736803
4.656968235,-0.987746238708496,0.0899950265884399,0.109294265508652,0.997841156380369
4.661968235,-0.964564323425293,0.0936183929443359,0.0823024213314056,0.972585433820282
4.666968235,-0.913005828857422,0.0930508375167847,0.067578911781311,0.920220088461314
4.671968235,-0.82209587097168,0.0754263401031494,0.0563041269779205,0.827466560390682
4.676968235,-0.697946548461914,0.0612741708755493,0.0498787760734558,0.702404300121355
4.681968235,-0.606809616088867,0.0609161853790283,0.0352518260478973,0.610877551608145
4.686968235,-0.504294395446777,0.045228123664856,0.0175436437129974,0.506622344438145
4.691968235,-0.383752822875977,0.0324335098266602,-0.00279173254966736,0.385131088586192
4.696968235,-0.253643035888672,0.0209058523178101,-0.0163432657718658,0.255027344910396
4.701968235,-0.156374931335449,0.0188788175582886,-0.0281617641448975,0.160008168111251
4.706968235,-0.0839996337890625,0.000491738319396973,-0.029713362455368,0.0891014264289604
4.711968235,-0.0717916488647461,0.00561678409576416,-0.0290903449058533,0.0776649037663663
4.716968235,-0.0477914810180664,0.00994277000427246,-0.0377088189125061,0.0616833799092936
4.721968235,-0.00636577606201172,0.0143697261810303,-0.0403684675693512,0.0433200335790178
4.726968235,0.0514316558837891,-0.00480401515960693,-0.037516325712204,0.063841745617945
4.731968235,0.113009452819824,-0.00195002555847168,-0.0264835953712463,0.116087552520081
4.736968235,0.157328605651855,0.00392282009124756,-0.036792516708374,0.161621062858655
4.741968235,0.201184272766113,-0.000109672546386719,-0.0147651135921478,0.201725388129225
4.746968235,0.284760475158691,-0.0196957588195801,-0.00809231400489807,0.285555487907406
4.751968235,0.417637825012207,-0.0324887037277222,0.0140047967433929,0.419133633919611
4.756968235,0.571359634399414,-0.0561407804489136,0.0355095267295837,0.575208262752722
4.761968235,0.717536926269531,-0.0827025175094605,0.0425665676593781,0.723540503113011
4.766968235,0.856180191040039,-0.101074576377869,0.0484522879123688,0.863486081951103
4.771968235,0.926905632019043,-0.112460255622864,0.0637028813362122,0.935873611581135
4.776968235,0.997256278991699,-0.133957862854004,0.0772688388824463,1.00917553897775
4.781968235,1.05028247833252,-0.132269978523254,0.0833572447299957,1.06185548063746
4.786968235,1.08311080932617,-0.136708378791809,0.0821032524108887,1.09478726251611
4.791968235,1.05177688598633,-0.131932139396667,0.0834983885288239,1.06330272650257
4.796968235,0.965056419372559,-0.125726699829102,0.0868732929229736,0.977081401238086
4.801968235,0.854833602905273,-0.105595946311951,0.0671955645084381,0.863948051923919
4.806968235,0.775317192077637,-0.0919852256774902,0.0500352382659912,0.782356411836974
4.811968235,0.699278831481934,-0.0793824195861816,0.0438977181911469,0.705137903080301
4.816968235,0.592599868774414,-0.0573416948318481,0.0412278175354004,0.596793437779249
4.821968235,0.506684303283691,-0.0508600473403931,0.0144236385822296,0.509434754369485
4.826968235,0.461179733276367,-0.051284670829773,0.0209891200065613,0.464496939716107
4.831968235,0.397341728210449,-0.0304386615753174,-0.00635632872581482,0.398556600761591
4.836968235,0.347195625305176,-0.0272176265716553,-0.011551171541214,0.348452336756723
4.841968235,0.332441329956055,-0.030678391456604,-0.0178771317005157,0.334332160288466
4.846968235,0.345626831054688,-0.0375615358352661,-0.0278825759887695,0.348778172142379
4.851968235,0.300457000732422,-0.0279616117477417,-0.0286644697189331,0.303113696234469
4.856968235,0.201275825500488,-0.0178698301315308,-0.0484878718852997,0.207803663297349
4.861968235,0.124050140380859,-0.0198298692703247,-0.0680125057697296,0.142854338348076
4.866968235,0.048985481262207,-0.00346946716308594,-0.0719833374023438,0.0871390580650573
4.871968235,-0.0421199798583984,0.0316640138626099,-0.0904950797557831,0.10471896646343
4.876968235,-0.148962020874023,0.0399870872497559,-0.102856904268265,0.185386605679169
4.881968235,-0.264825820922852,0.0595515966415405,-0.101348638534546,0.289742393554732
4.886968235,-0.374381065368652,0.0761663913726807,-0.104562699794769,0.396100819829592
4.891968235,-0.484860420227051,0.099145770072937,-0.113382339477539,0.507715536232158
4.896968235,-0.57199764251709,0.118605017662048,-0.113483309745789,0.595085636568874
4.901968235,-0.598332405090332,0.114258408546448,-0.113718658685684,0.619668124271387
4.906968235,-0.589877128601074,0.117918610572815,-0.105143666267395,0.610667680594135
4.911968235,-0.546112060546875,0.103145599365234,-0.0983773171901703,0.56440720573067
4.916968235,-0.478457450866699,0.108351707458496,-0.0776515007019043,0.496680360352903
4.921968235,-0.420638084411621,0.0918077230453491,-0.0669936239719391,0.435721472641805
4.926968235,-0.350597381591797,0.0837244987487793,-0.0528682768344879,0.364312188054705
4.931968235,-0.265745162963867,0.0888285636901856,-0.0406566560268402,0.283132423161387
4.936968235,-0.177178382873535,0.0708059072494507,-0.0295388698577881,0.193075634639833
4.941968235,-0.171546936035156,0.0728967189788818,-0.0283686816692352,0.188539292988455
4.946968235,-0.184006690979004,0.0773942470550537,-0.0198631584644318,0.200606273247983
4.951968235,-0.237808227539063,0.0900788307189941,-0.0356892049312592,0.256789151206972
4.956968235,-0.296787261962891,0.0925225019454956,-0.0359893143177033,0.312950991330499
4.961968235,-0.386744499206543,0.108524680137634,-0.0257301032543182,0.40250584104951
4.966968235,-0.507560729980469,0.128506660461426,-0.0426789224147797,0.525312618180585
4.971968235,-0.599556922912598,0.137450456619263,-0.0633268356323242,0.618361884294682
4.976968235,-0.676554679870606,0.151583909988403,-0.0644185245037079,0.696314342033413
4.981968235,-0.700687408447266,0.162379622459412,-0.0697696506977081,0.72263254168705
4.986968235,-0.701872825622559,0.152461528778076,-0.0565217733383179,0.720461443774787
4.991968235,-0.683974266052246,0.132012128829956,-0.0772782564163208,0.700870835243322
4.996968235,-0.642837524414063,0.122372508049011,-0.08028444647789,0.659288029519168
5.001968235,-0.567136764526367,0.119157910346985,-0.079717755317688,0.58497661302704
5.006968235,-0.498739242553711,0.102002143859863,-0.0922356843948364,0.517351612436688
5.011968235,-0.430625915527344,0.0831133127212524,-0.0903478860855103,0.447782583845536
5.016968235,-0.353307723999023,0.0648665428161621,-0.0841414928436279,0.368936047347295
5.021968235,-0.267505645751953,0.0611554384231567,-0.0966541171073914,0.290931738577466
5.026968235,-0.204051971435547,0.0459097623825073,-0.0965153276920319,0.230347827878302
5.031968235,-0.165820121765137,0.0433723926544189,-0.0788523852825165,0.188666838346108
5.036968235,-0.173169136047363,0.0449965000152588,-0.0809631645679474,0.196385510437685
5.041968235,-0.172101020812988,0.0457395315170288,-0.0894810557365418,0.199293064214478
5.046968235,-0.129305839538574,0.0405943393707275,-0.102439671754837,0.169887571284541
5.051968235,-0.0628595352172852,0.0347143411636353,-0.0988810062408447,0.122204173600415
5.056968235,-0.0235023498535156,0.0372296571731567,-0.0990056991577148,0.108353755299832
5.061968235,0.0451726913452148,0.0347055196762085,-0.0969304144382477,0.112430202270281
5.066968235,0.136294364929199,0.00809955596923828,-0.104489237070084,0.17192951282965
5.071968235,0.224699020385742,0.0015493631362915,-0.111781388521194,0.250972367220311
5.076968235,0.337203979492188,0.00274300575256348,-0.106705397367477,0.353694910471267
5.081968235,0.445914268493652,-0.008186936378479,-0.0989387929439545,0.456831966397603
5.086968235,0.555849075317383,-0.0378679037094116,-0.0898952186107636,0.564343266985274
5.091968235,0.666533470153809,-0.0548561811447144,-0.0811634361743927,0.673693974157922
5.096968235,0.771644592285156,-0.0575271844863892,-0.0820631384849548,0.778125383505677
5.101968235,0.863617897033691,-0.072965145111084,-0.075899064540863,0.870011754217238
5.106968235,0.967229843139648,-0.0886107683181763,-0.0569265484809876,0.972947105265155
5.111968235,1.06008434295654,-0.104224562644959,-0.051421046257019,1.06643597915595
5.116968235,1.14404010772705,-0.114763140678406,-0.052728146314621,1.15099027101026
5.121968235,1.1323766708374,-0.115329623222351,-0.0558314621448517,1.13960300052897
5.126968235,1.08098220825195,-0.10106635093689,-0.048443466424942,1.08677675319646
5.131968235,1.04544353485107,-0.0981341600418091,-0.0494842827320099,1.05120463857734
5.136968235,1.00012016296387,-0.0881252288818359,-0.065123587846756,1.00610510287265
5.141968235,0.957756996154785,-0.080902099609375,-0.0620974898338318,0.963171693753666
5.146968235,0.89306640625,-0.0519927740097046,-0.0739313960075378,0.897628378471368
5.151968235,0.831526756286621,-0.0324167013168335,-0.0702472031116486,0.835118110502834
5.156968235,0.720687866210938,-0.0243598222732544,-0.0909879207611084,0.726817173138671
5.161968235,0.610805511474609,-0.0139446258544922,-0.0989681482315064,0.618928525600779
5.166968235,0.531083106994629,0.00767707824707031,-0.102015256881714,0.540846851430349
5.171968235,0.453298568725586,0.0185843706130981,-0.104156941175461,0.46548215823464
5.176968235,0.386702537536621,0.0281004905700684,-0.116809219121933,0.404935653875299
5.181968235,0.310449600219727,0.0328168869018555,-0.12178972363472,0.33509497030773
5.186968235,0.208535194396973,0.0536420345306397,-0.135429590940475,0.254372894139832
5.191968235,0.121562004089355,0.0683290958404541,-0.159324258565903,0.211731919048992
5.196968235,0.0418977737426758,0.0708804130554199,-0.175639092922211,0.193980791219224
5.201968235,-0.0558576583862305,0.0666021108627319,-0.155366152524948,0.178029661916687
5.206968235,-0.152880668640137,0.0931578874588013,-0.18852561712265,0.259986151844897
5.211968235,-0.313066482543945,0.103335022926331,-0.19455960392952,0.382808292669889
5.216968235,-0.467859268188477,0.115122675895691,-0.211200803518295,0.526071577584282
5.221968235,-0.62596607208252,0.128288507461548,-0.217651605606079,0.675028655664361
5.226968235,-0.778977394104004,0.149644255638123,-0.210914939641953,0.820782733453087
5.231968235,-0.945438385009766,0.154231667518616,-0.219881415367126,0.982847385884145
5.236968235,-1.08222675323486,0.182734131813049,-0.232761234045029,1.12195556971785
5.241968235,-1.20469665527344,0.195714235305786,-0.23034530878067,1.242037460951
5.246968235,-1.29903602600098,0.205459833145142,-0.230789244174957,1.33527975162933
5.251968235,-1.4000768661499,0.216487765312195,-0.205673396587372,1.4315668792347
5.256968235,-1.47233963012695,0.228625655174255,-0.202783524990082,1.50372033126298
5.261968235,-1.52768135070801,0.222637891769409,-0.180528998374939,1.55433865660185
5.266968235,-1.5155200958252,0.215151190757751,-0.174461483955383,1.54062584851689
5.271968235,-1.50414371490479,0.219753980636597,-0.175205379724503,1.53017549718247
5.276968235,-1.38905239105225,0.211450219154358,-0.163779824972153,1.41456762699289
5.281968235,-1.21508312225342,0.174167990684509,-0.141089826822281,1.2355840004617
5.286968235,-1.03125381469727,0.156270503997803,-0.120116859674454,1.04992045447522
5.291968235,-0.861092567443848,0.141529679298401,-0.0925043523311615,0.877535250021077
5.296968235,-0.700190544128418,0.108554005622864,-0.0857639014720917,0.71372699053583
5.301968235,-0.507882118225098,0.0758523941040039,-0.0703157186508179,0.518306986248017
5.306968235,-0.317109107971191,0.0608266592025757,-0.0636663436889648,0.329107083100246
5.311968235,-0.12136173248291,0.045989990234375,-0.060728907585144,0.143289041903058
5.316968235,0.0650167465209961,0.00572812557220459,-0.058398425579071,0.0875806192080229
5.321968235,0.246269226074219,-0.012775182723999,-0.0582659542560577,0.253390328209652
5.326968235,0.370964050292969,-0.0148383378982544,-0.0606631636619568,0.37618416009559
5.331968235,0.483964920043945,-0.0198829174041748,-0.0473064184188843,0.486677790186964
5.336968235,0.590662956237793,-0.0388391017913818,-0.0574308335781097,0.594718004053187
5.341968235,0.703041076660156,-0.0483471155166626,-0.0554040670394897,0.706876092179365
5.346968235,0.815874099731445,-0.0619810819625855,-0.0566802322864533,0.820185863000512
5.351968235,0.915180206298828,-0.0819045305252075,-0.0591614544391632,0.920740593116801
5.356968235,0.996136665344238,-0.079472541809082,-0.0566399693489075,1.00090570338698
5.361968235,1.06840991973877,-0.0813459157943726,-0.0575815737247467,1.0730482525242
5.366968235,1.17490863800049,-0.101589798927307,-0.0475539863109589,1.18025089557616
5.371968235,1.28708839416504,-0.114399909973145,-0.0355051755905151,1.29265018132901
5.376968235,1.38776588439941,-0.137795090675354,-0.0396885275840759,1.39515476422471
5.381968235,1.44127368927002,-0.135364174842834,-0.0346061289310455,1.44803000361612
5.386968235,1.46696472167969,-0.145971894264221,-0.0134551823139191,1.47427077923255
5.391968235,1.46977138519287,-0.130675435066223,-0.0168933868408203,1.47566574148093
5.396968235,1.46487331390381,-0.148953080177307,0.000331312417984009,1.47242689314266
5.401968235,1.41010856628418,-0.135130524635315,0.020833432674408,1.41672172966791
5.406968235,1.30949211120605,-0.108829379081726,0.0267843902111053,1.31427958464749
5.411968235,1.1914234161377,-0.0912201404571533,0.0219778418540955,1.19511250352375
5.416968235,1.0594310760498,-0.0778790712356567,0.0203511118888855,1.06248459866094
5.421968235,0.852732658386231,-0.0389449596405029,0.0243755280971527,0.853969474237729
5.426968235,0.629141807556152,-0.00305306911468506,0.0421586930751801,0.63056014038936
5.431968235,0.388080596923828,0.021773099899292,0.0219654142856598,0.389311054316108
5.436968235,0.140929222106934,0.0563281774520874,0.0205100178718567,0.153148849332416
5.441968235,-0.143538475036621,0.090362548828125,0.00957384705543518,0.169883320529106
5.446968235,-0.342082977294922,0.118919014930725,0.00398877263069153,0.362185595757412
5.451968235,-0.538049697875977,0.143626689910889,-0.0247412025928497,0.557438992666398
5.456968235,-0.693917274475098,0.157867312431335,-0.0272679030895233,0.712170492710938
5.461968235,-0.815866470336914,0.161528587341309,-0.0558843016624451,0.833578212959523
5.466968235,-0.939027786254883,0.173341512680054,-0.066744327545166,0.957222684977958
5.471968235,-1.08685779571533,0.178090572357178,-0.0726525783538818,1.10374567596488
5.476968235,-1.1846866607666,0.188516497612,-0.0912421047687531,1.20305697111685
5.481968235,-1.23690319061279,0.19459080696106,-0.123881489038467,1.25822959289164
5.486968235,-1.26155471801758,0.183561682701111,-0.121816337108612,1.28064609392878
5.491968235,-1.31223773956299,0.176874399185181,-0.130737096071243,1.33054298183473
5.496968235,-1.37840557098389,0.191051244735718,-0.147402256727219,1.3993676863222
5.501968235,-1.47402667999268,0.193633556365967,-0.160291194915771,1.49530661559718
5.506968235,-1.50142097473145,0.197315216064453,-0.171999037265778,1.52406755318603
5.511968235,-1.49058723449707,0.207688331604004,-0.170823186635971,1.51465022623131
5.516968235,-1.42823886871338,0.194255948066711,-0.166169822216034,1.45093557723225
5.521968235,-1.33527755737305,0.187632441520691,-0.143221318721771,1.35598098602877
5.526968235,-1.21285343170166,0.180710315704346,-0.122164070606232,1.2323123488546
5.531968235,-1.05869960784912,0.170777082443237,-0.108559429645538,1.07786586424873
5.536968235,-0.869874954223633,0.13076913356781,-0.0876077115535736,0.884001195363048
5.541968235,-0.642520904541016,0.098928689956665,-0.0669574737548828,0.653531408396247
5.546968235,-0.365971565246582,0.0577907562255859,-0.0316403210163116,0.37185490179393
5.551968235,-0.0860271453857422,0.0197305679321289,0.00524976849555969,0.088416769469377
5.556968235,0.214973449707031,-0.00636684894561768,0.00666818022727966,0.215171060953794
5.561968235,0.461671829223633,-0.0471146106719971,0.0402383506298065,0.465810894354003
5.566968235,0.697122573852539,-0.0853567123413086,0.0524738729000092,0.70428627606509
5.571968235,0.888359069824219,-0.108080148696899,0.0672272145748138,0.897431141570641
5.576968235,1.05843544006348,-0.133821368217468,0.0802618265151978,1.06987648827774
5.581968235,1.19742488861084,-0.13266921043396,0.100811004638672,1.20896250641536
5.586968235,1.25894641876221,-0.131223201751709,0.10723677277565,1.27030127899939
5.591968235,1.27699375152588,-0.146485447883606,0.0864985287189484,1.28827521258012
5.596968235,1.27112197875977,-0.133100628852844,0.0865891575813294,1.28100138348786
5.601968235,1.25111865997314,-0.127268314361572,0.0763919353485107,1.2598931910919
5.606968235,1.20546245574951,-0.120365023612976,0.0678503215312958,1.2133553219329
5.611968235,1.16379547119141,-0.0999428033828735,0.0532841682434082,1.16929366084788
5.616968235,1.08174610137939,-0.0997997522354126,0.0327939689159393,1.0868348829482
5.621968235,1.01113986968994,-0.0771703720092773,0.0189812183380127,1.01425804854694
5.626968235,0.929926872253418,-0.0671713352203369,0.000452995300292969,0.932349816978075
5.631968235,0.854151725769043,-0.0572570562362671,-0.00266346335411072,0.856072797815768
5.636968235,0.778738975524902,-0.0412054061889648,-0.00868016481399536,0.779876671507726
5.641968235,0.676793098449707,-0.0271754264831543,-0.0225106477737427,0.677712425130962
5.646968235,0.58782958984375,-0.0226778984069824,-0.0537503659725189,0.590717373719623
5.651968235,0.446961402893066,-0.0099642276763916,-0.0423976480960846,0.449078325098645
5.656968235,0.292661666870117,0.0176390409469605,-0.0587655305862427,0.299024036836183
5.661968235,0.140371322631836,0.0323563814163208,-0.0544055700302124,0.153983796829672
5.666968235,-0.00841617584228516,0.0477026700973511,0.017137885093689,0.0513817463279467
5.671968235,-0.153162956237793,0.0627564191818237,0.0528362989425659,0.17374962963406
5.676968235,-0.287534713745117,0.0900883674621582,0.0970002114772797,0.316545678515945
5.681968235,-0.41681957244873,0.102599501609802,0.0856524705886841,0.437723153859683
5.686968235,-0.509121894836426,0.131490468978882,0.10139687359333,0.535514867402037
5.691968235,-0.595158576965332,0.156926274299622,0.126730501651764,0.628410858714159
5.696968235,-0.66313648223877,0.158918857574463,0.137534007430077,0.69564416231904
5.701968235,-0.750636100769043,0.180963039398193,0.134432643651962,0.783756539421038
5.706968235,-0.856133460998535,0.188267230987549,0.160257190465927,0.891118073209764
5.711968235,-0.907116889953613,0.190640449523926,0.170510947704315,0.942485446211677
5.716968235,-0.950872421264648,0.193835020065308,0.188535362482071,0.988572687985896
5.721968235,-1.01108360290527,0.197812676429749,0.192890822887421,1.04815398514455
5.726968235,-1.07685852050781,0.210224747657776,0.194457098841667,1.11428554733873
5.731968235,-1.09383201599121,0.21404242515564,0.209603130817413,1.1341146817771
5.736968235,-1.02704811096191,0.198566436767578,0.22636154294014,1.07027846851333
5.741968235,-0.921302795410156,0.197431921958923,0.227446109056473,0.969283207924233
5.746968235,-0.809063911437988,0.16397500038147,0.240290984511375,0.859774372017965
5.751968235,-0.70457649230957,0.15164041519165,0.276394665241241,0.771891741119551
5.756968235,-0.616157531738281,0.136998891830444,0.274436175823212,0.68828338268554
5.761968235,-0.478259086608887,0.113260984420776,0.278417110443115,0.564868030519894
5.766968235,-0.312671661376953,0.0988056659698486,0.303055584430695,0.446507351239147
5.771968235,-0.11525821685791,0.0728644132614136,0.349055558443069,0.374744529183814
5.776968235,0.0620079040527344,0.0491464138031006,0.367854326963425,0.376267399624832
5.781968235,0.198721885681152,0.0217187404632568,0.360779911279678,0.412461193227867
5.786968235,0.294514656066895,0.00365567207336426,0.356957584619522,0.4627860885916
5.791968235,0.349316596984863,-0.00332212448120117,0.357841849327087,0.500083903530182
5.796968235,0.450314521789551,-0.0268394947052002,0.415012776851654,0.612975637330476
5.801968235,0.559894561767578,-0.0579651594161987,0.428160548210144,0.707222267074973
5.806968235,0.641988754272461,-0.0726627111434937,0.446230292320251,0.785207554718653
5.811968235,0.695551872253418,-0.0871083736419678,0.406648278236389,0.810396876811852
5.816968235,0.683258056640625,-0.0802942514419556,0.356579899787903,0.774879322031307
5.821968235,0.658793449401856,-0.0806840658187866,0.284722208976746,0.722208739725879
5.826968235,0.644115447998047,-0.0907716751098633,0.254959464073181,0.698661960945677
5.831968235,0.60865592956543,-0.0831055641174316,0.232397198677063,0.656792991234971
5.836968235,0.569210052490234,-0.0866962671279907,0.1860141903162,0.605076528704308
5.841968235,0.529758453369141,-0.0808768272399902,0.147809952497482,0.555907242404503
5.846968235,0.466141700744629,-0.0689911842346191,0.117042519152164,0.485537660706845
5.851968235,0.41673755645752,-0.0702683925628662,0.0922999456524849,0.432581920476347
5.856968235,0.318612098693848,-0.0400704145431519,0.0677363127470017,0.328188231995478
5.861968235,0.207959175109863,-0.0276769399642944,0.027880497276783,0.211637316290305
5.866968235,0.0836725234985352,-0.00825703144073486,0.0158010572195053,0.0855508221239298
5.871968235,-0.0458278656005859,0.00714206695556641,0.0161834955215454,0.0491233947646032
5.876968235,-0.192902565002441,0.0420273542404175,0.00301267206668854,0.197450688228611
5.881968235,-0.296414375305176,0.0516678094863892,-0.00556491315364838,0.300935230046412
5.886968235,-0.400876045227051,0.0664370059967041,0.0269762426614761,0.407238501459301
5.891968235,-0.495227813720703,0.0795174837112427,0.0468722581863403,0.503756514881785
5.896968235,-0.576594352722168,0.0988677740097046,0.0345052927732468,0.586026022935925
5.901968235,-0.58640193939209,0.112246155738831,0.0296076536178589,0.597781772182546
5.906968235,-0.540493965148926,0.103245377540588,0.01396843791008,0.550443867804479
5.911968235,-0.464821815490723,0.0906982421875,-0.0238458812236786,0.474187850269624
5.916968235,-0.349674224853516,0.0944513082504273,-0.0786242485046387,0.370641181751358
5.921968235,-0.221402168273926,0.0916510820388794,-0.130888342857361,0.273039556202465
5.926968235,-0.111695289611816,0.0754923820495606,-0.201507359743118,0.242446186811892
5.931968235,0.0296783447265625,0.0543469190597534,-0.236209064722061,0.244190732858286
5.936968235,0.133655548095703,0.070375919342041,-0.263917118310928,0.304086864066084
5.941968235,0.247856140136719,0.0317986011505127,-0.300229996442795,0.390617290967313
5.946968235,0.297487258911133,0.0333915948867798,-0.332497835159302,0.447401920211754
5.951968235,0.321808815002441,0.0306695699691772,-0.347053408622742,0.474286415968277
5.956968235,0.340446472167969,0.0277070999145508,-0.336785614490509,0.479683264170265
5.961968235,0.396726608276367,0.0279589891433716,-0.342074751853943,0.524584447581441
5.966968235,0.442667007446289,0.0211265087127686,-0.357490539550781,0.569385541369073
5.971968235,0.40770149230957,0.0348986387252808,-0.384695529937744,0.561630726163028
5.976968235,0.352861404418945,0.0689874887466431,-0.392142415046692,0.532020787197954
5.981968235,0.251979827880859,0.0917823314666748,-0.396374702453613,0.478571556586386
5.986968235,0.102399826049805,0.112526655197144,-0.411098182201386,0.438348819907355
5.991968235,-0.0393781661987305,0.134289622306824,-0.432819247245789,0.454881131086898
5.996968235,-0.172595977783203,0.166101455688477,-0.431354999542236,0.493402676075894
6.001968235,-0.268946647644043,0.180518984794617,-0.4673712849617,0.568643404214802
6.006968235,-0.334415435791016,0.189695358276367,-0.477588474750519,0.613113989288632
6.011968235,-0.357545852661133,0.206904292106628,-0.474650025367737,0.629238483747549
6.016968235,-0.347899436950684,0.206830263137817,-0.513331532478333,0.653698736588052
6.021968235,-0.29127025604248,0.192583799362183,-0.522302627563477,0.628272963441478
6.026968235,-0.21735668182373,0.200628519058228,-0.563293993473053,0.636235689721773
6.031968235,-0.149772644042969,0.169957160949707,-0.556028127670288,0.600403664397739
6.036968235,-0.10373592376709,0.155408263206482,-0.559007048606873,0.589407966136218
6.041968235,-0.0747509002685547,0.146883249282837,-0.583791375160217,0.606609228187555
6.046968235,-0.0432510375976563,0.145528793334961,-0.582516074180603,0.601975297351632
6.051968235,-0.0176315307617188,0.13549816608429,-0.569049119949341,0.58522433715997
6.056968235,-0.0334358215332031,0.134272933006287,-0.526238143444061,0.544126601366964
6.061968235,-0.0373420715332031,0.120436549186707,-0.533975660800934,0.548661461207352
6.066968235,-0.0542850494384766,0.120599150657654,-0.518865883350372,0.535455718651736
6.071968235,-0.0530881881713867,0.115567326545715,-0.492853581905365,0.508997854499597
6.076968235,-0.0331382751464844,0.115013241767883,-0.453906536102295,0.469422341370781
6.081968235,-0.00172805786132813,0.104785561561584,-0.44403862953186,0.456238210381684
6.086968235,-0.00874710083007813,0.109271049499512,-0.395698606967926,0.4106020720698
6.091968235,0.0204172134399414,0.0909402370452881,-0.34004670381546,0.352588641470857
6.096968235,0.0332241058349609,0.0900694131851196,-0.309882521629334,0.324412573140128
6.101968235,0.0352840423583984,0.0864003896713257,-0.278349697589874,0.293578856747009
6.106968235,0.0402975082397461,0.0652785301208496,-0.249847888946533,0.261360179208904
6.111968235,0.0145692825317383,0.064305305480957,-0.221352159976959,0.230963666045017
6.116968235,-0.0313434600830078,0.0691975355148315,-0.184101402759552,0.199158323725965
6.121968235,-0.102421760559082,0.0780067443847656,-0.143933653831482,0.193111796405121
6.126968235,-0.182933807373047,0.0778199434280396,-0.113703846931458,0.229018091604473
6.131968235,-0.234426498413086,0.0761911869049072,-0.0833728313446045,0.26021512086467
6.136968235,-0.264822006225586,0.070503830909729,-0.0554768443107605,0.279605374427911
6.141968235,-0.297006607055664,0.0576896667480469,-0.0254330635070801,0.303624542821514
6.146968235,-0.308856010437012,0.0447502136230469,-0.00078970193862915,0.31208210527284
6.151968235,-0.314102172851563,-0.000972986221313477,0.0479776859283447,0.317746723097656
6.156968235,-0.28267765045166,-0.0154874324798584,0.0936258435249329,0.298181678185371
6.161968235,-0.21727180480957,-0.0514204502105713,0.114148795604706,0.250760936756646
6.166968235,-0.127511024475098,-0.0845633745193481,0.143696308135986,0.209901535593956
6.171968235,-0.0133695602416992,-0.117737770080566,0.186419397592545,0.220891646386567
6.176968235,0.147577285766602,-0.154736280441284,0.209014058113098,0.29901379273864
6.181968235,0.460550308227539,-0.23056173324585,0.267812788486481,0.580507527016417
6.186968235,0.887689590454102,-0.335871934890747,0.37865674495697,1.02185306974596
6.191968235,0.892006874084473,-0.374297976493835,0.446425557136536,1.06539711689398
6.196968235,0.803730010986328,-0.36422324180603,0.507057249546051,1.01771683426628
6.201968235,0.620269775390625,-0.357218027114868,0.572556734085083,0.916602709414036
6.206968235,0.376675605773926,-0.311504483222961,0.596518158912659,0.771202612136205
6.211968235,0.219369888305664,-0.27749228477478,0.57624751329422,0.676155538750175
6.216968235,-0.0424261093139648,-0.227689743041992,0.563994526863098,0.609698630611533
6.221968235,-0.323524475097656,-0.189584016799927,0.518726587295532,0.640068322744126
6.226968235,-0.483778953552246,-0.16718852519989,0.481395810842514,0.702663508057265
6.231968235,-0.439445495605469,-0.15669846534729,0.482512950897217,0.671182166355507
6.236968235,-0.39058780670166,-0.16987133026123,0.505157172679901,0.660756288429164
6.241968235,-0.243313789367676,-0.208812117576599,0.492697149515152,0.587838907936211
6.246968235,0.00160408020019531,-0.236975908279419,0.481618046760559,0.536764470828314
6.251968235,0.242079734802246,-0.274366736412048,0.44471487402916,0.57589150300564
6.256968235,0.436857223510742,-0.294595837593079,0.42620062828064,0.677700462451882
6.261968235,0.599950790405273,-0.322844982147217,0.38754665851593,0.783812634455717
6.266968235,0.650403022766113,-0.335901856422424,0.35409140586853,0.813163497017224
6.271968235,0.579054832458496,-0.323107123374939,0.347719520330429,0.74873999291342
6.276968235,0.437726020812988,-0.292420983314514,0.338003158569336,0.625587912273125
6.281968235,0.206277847290039,-0.248577952384949,0.343212991952896,0.471313808984805
6.286968235,-0.0720367431640625,-0.196311712265015,0.344873130321503,0.403317563163147
6.291968235,-0.383784294128418,-0.13448691368103,0.363222479820251,0.545259281643027
6.296968235,-0.650649070739746,-0.0940767526626587,0.366411358118057,0.752630010034124
6.301968235,-0.899328231811523,-0.0492672920227051,0.36859592795372,0.973181120193233
6.306968235,-1.08119201660156,-0.0126528739929199,0.39353147149086,1.15065341916539
6.311968235,-1.12218570709229,-0.00603365898132324,0.435620337724686,1.20378662763892
6.316968235,-1.0887622833252,-0.0108494758605957,0.473454385995865,1.18729948889767
6.321968235,-0.914148330688477,-0.0291768312454224,0.463375419378281,1.02529763350261
6.326968235,-0.668061256408691,-0.0776071548461914,0.493535131216049,0.834209589097442
6.331968235,-0.37554931640625,-0.116474270820618,0.512622952461243,0.6460540505302
6.336968235,-0.0890159606933594,-0.165716886520386,0.519838988780975,0.55282773265548
6.341968235,0.159826278686523,-0.207169413566589,0.499535024166107,0.563913863675065
6.346968235,0.347854614257813,-0.231496453285217,0.472326725721359,0.630623482257636
6.351968235,0.484674453735352,-0.250046968460083,0.444536685943604,0.703594824945054
6.356968235,0.559576988220215,-0.257314562797546,0.395975112915039,0.732211362941997
6.361968235,0.568064689636231,-0.244183897972107,0.365004986524582,0.718019434157718
6.366968235,0.53220272064209,-0.223203659057617,0.35275211930275,0.676382781380582
6.371968235,0.459277153015137,-0.199372887611389,0.32997253537178,0.599638996143408
6.376968235,0.398076057434082,-0.183766722679138,0.300388425588608,0.531477151055524
6.381968235,0.319619178771973,-0.165379881858826,0.304419845342636,0.47135800300933
6.386968235,0.270258903503418,-0.145023941993713,0.295694142580032,0.426036201079681
6.391968235,0.275762557983398,-0.144192576408386,0.27883917093277,0.41783701454432
6.396968235,0.255763053894043,-0.135776877403259,0.201730400323868,0.352909697499821
6.401968235,0.29395580291748,-0.137392640113831,0.124832957983017,0.347663657900993
6.406968235,0.385134696960449,-0.142080307006836,0.0320190489292145,0.411753285276882
6.411968235,0.359963417053223,-0.183631896972656,-0.0242619812488556,0.404824627383918
6.416968235,0.462535858154297,-0.210084080696106,-0.0939237475395203,0.516620180976631
6.421968235,0.552679061889648,-0.248134255409241,-0.104473531246185,0.614767820310862
6.426968235,0.601914405822754,-0.281374931335449,-0.0942838191986084,0.671090338541439
6.431968235,0.618453025817871,-0.295205473899841,-0.100456118583679,0.692619555545906
6.436968235,0.565406799316406,-0.311969876289368,-0.0680715441703796,0.649341041018482
6.441968235,0.448052406311035,-0.293022036552429,0.0648662745952606,0.539277763574867
6.446968235,0.306619644165039,-0.261130928993225,0.215582549571991,0.456815940992343
6.451968235,0.153306007385254,-0.220560312271118,0.312221854925156,0.411864140151149
6.456968235,-0.0187416076660156,-0.167558073997498,0.274627089500427,0.322252997359425
6.461968235,-0.247172355651855,-0.127195000648499,0.195837795734406,0.340037033022243
6.466968235,-0.522711753845215,-0.0950906276702881,0.0967464148998261,0.540027475110886
6.471968235,-0.83428955078125,-0.0628305673599243,0.0501458942890167,0.838153533340757
6.476968235,-1.0888500213623,-0.0443903207778931,0.0443487763404846,1.0906565378534
6.481968235,-1.18716144561768,-0.0307022333145142,0.0157729685306549,1.18766313053316
6.486968235,-1.17613506317139,-0.045627236366272,0.00369387865066528,1.17702556312897
6.491968235,-1.06656551361084,-0.0443761348724365,-0.0322677195072174,1.06797586203639
6.496968235,-0.929815292358398,-0.0639581680297852,-0.00523123145103455,0.932027087022558
6.501968235,-0.732243537902832,-0.101299643516541,0.00867369771003723,0.739268185173013
6.506968235,-0.511579513549805,-0.118626475334167,-0.00850012898445129,0.525221945016404
6.511968235,-0.337594985961914,-0.153237581253052,-0.0715080797672272,0.377578516770892
6.516968235,-0.239969253540039,-0.187711954116821,-0.127552658319473,0.330288814535527
6.521968235,-0.182865142822266,-0.196184158325195,-0.151511907577515,0.308032047967334
6.526968235,-0.161559104919434,-0.209588408470154,-0.125948905944824,0.293072981109004
6.531968235,-0.142758369445801,-0.213645100593567,-0.108142107725143,0.278781090674557
6.536968235,-0.120587348937988,-0.199810981750488,-0.114685267210007,0.260035473862734
6.541968235,-0.122095108032227,-0.163317799568176,-0.138687461614609,0.246605212982807
6.546968235,-0.123623847961426,-0.14252507686615,-0.142060160636902,0.2361722730565
6.551968235,-0.161777496337891,-0.120182275772095,-0.151957899332047,0.252402339332512
6.556968235,-0.226652145385742,-0.105899333953857,-0.119162201881409,0.277101956501674
6.561968235,-0.262201309204102,-0.0882467031478882,-0.103778481483459,0.295477546327685
6.566968235,-0.240802764892578,-0.104296684265137,-0.0929206013679504,0.278384640537501
6.571968235,-0.178616523742676,-0.112530112266541,-0.0803104043006897,0.22586865599188
6.576968235,-0.0733070373535156,-0.128293037414551,-0.0546013414859772,0.157525653995371
6.581968235,0.0804281234741211,-0.145955920219421,-0.0199884474277496,0.167843235559967
6.586968235,0.249635696411133,-0.155243754386902,0.0178419649600983,0.294511357866635
6.591968235,0.423917770385742,-0.176963925361633,0.0405355393886566,0.461156846291743
6.596968235,0.565383911132813,-0.188553333282471,0.053446352481842,0.59838769961738
6.601968235,0.664233207702637,-0.205999493598938,0.0725151598453522,0.699213839955525
6.606968235,0.685495376586914,-0.209332227706909,0.10113787651062,0.72384581434436
6.611968235,0.682595252990723,-0.219477295875549,0.118324995040894,0.726709960893436
6.616968235,0.657118797302246,-0.175328373908997,0.0836542844772339,0.685232217410216
6.621968235,0.618386268615723,-0.1520756483078,0.0463324785232544,0.638494540765089
6.626968235,0.646382331848145,-0.1217041015625,-0.0150940418243408,0.657913244555219
6.631968235,0.649642944335938,-0.0972068309783936,-0.0330804586410522,0.65770771613098
6.636968235,0.553914070129395,-0.081610918045044,-0.0314356684684753,0.560775659496315
6.641968235,0.366121292114258,-0.0628618001937866,-0.0158531069755554,0.371816792874926
6.646968235,0.131039619445801,-0.0557385683059692,0.00402957201004028,0.142458440648084
6.651968235,-0.00399971008300781,-0.0407552719116211,0.0115585923194885,0.0425510390677646
6.656968235,-0.062413215637207,-0.0471470355987549,-0.00324124097824097,0.0782863851190346
6.661968235,-0.00710010528564453,-0.0511186122894287,-0.037104070186615,0.0635628511150768
6.666968235,0.0821208953857422,-0.0347718000411987,-0.0908980965614319,0.127339638351742
6.671968235,0.176937103271484,-0.0508805513381958,-0.114108324050903,0.216601658895514
6.676968235,0.194998741149902,-0.0474579334259033,-0.0985636115074158,0.223587902196181
6.681968235,0.141193389892578,-0.0880613327026367,-0.0756260454654694,0.182783124000733
6.686968235,0.0408735275268555,-0.0938963890075684,-0.072132796049118,0.125260997070169
6.691968235,-0.0570888519287109,-0.0971627235412598,-0.0628578960895538,0.129038160872273
6.696968235,-0.14744758605957,-0.0872554779052734,-0.0589894950389862,0.181201737254991
6.701968235,-0.258247375488281,-0.0769890546798706,-0.0986734628677368,0.286976434156877
6.706968235,-0.344742774963379,-0.0675053596496582,-0.13679513335228,0.376984698601612
6.711968235,-0.503721237182617,-0.050014853477478,-0.173744916915894,0.535185824280942
6.716968235,-0.752426147460938,-0.0432367324829102,-0.157791942358017,0.770008324300344
6.721968235,-0.957748413085938,-0.0317592620849609,-0.121098220348358,0.965896191352027
6.726968235,-1.03781318664551,-0.0103170871734619,-0.0901622474193573,1.04177343195282
6.731968235,-0.987896919250488,-0.0203942060470581,-0.0958618819713593,0.992746567417882
6.736968235,-0.873291969299316,0.00217115879058838,-0.119215428829193,0.881394290907367
6.741968235,-0.79102897644043,0.00148868560791016,-0.105577230453491,0.798044866748395
6.746968235,-0.634653091430664,0.0151547193527222,-0.0579898059368134,0.637477081606663
6.751968235,-0.444797515869141,-0.00604867935180664,0.0286320447921753,0.445759139709149
6.756968235,-0.244209289550781,-0.0386110544204712,0.0920927822589874,0.263837205811764
6.761968235,-0.115327835083008,-0.0327942371368408,0.0736781060695648,0.140728230459701
6.766968235,-0.0267448425292969,-0.0619498491287231,0.0674037635326386,0.0953747227904349
6.771968235,0.0750484466552734,-0.0861338376998901,0.0934235751628876,0.147578019157651
6.776968235,0.209341049194336,-0.0903617143630981,0.122332781553268,0.258755142447417
6.781968235,0.302517890930176,-0.0703707933425903,0.109537184238434,0.329344071784193
6.786968235,0.441347122192383,-0.0548832416534424,0.0522806942462921,0.447808802361859
6.791968235,0.642841339111328,-0.0147925615310669,0.0233168005943298,0.643434130534783
6.796968235,0.707131385803223,0.0214235782623291,0.0293831527233124,0.708065771067568
6.801968235,0.649313926696777,0.0417649745941162,0.0195093750953674,0.650948157860399
6.806968235,0.539401054382324,0.0856075286865234,-0.0274963974952698,0.546843851855166
6.811968235,0.479888916015625,0.108474731445313,-0.0471726953983307,0.494252366982626
6.816968235,0.444585800170898,0.114836931228638,-0.067059189081192,0.464048477346749
