Time (s),Linear Acceleration x (m/s^2),Linear Acceleration y (m/s^2),Linear Acceleration z (m/s^2),Absolute acceleration (m/s^2)
0.01881594,0,0,0,0
0.02381594,0.0736026763916016,-0.0151300430297852,0.0174795389175415,0.0771479517217393
0.02881594,0.128026008605957,-0.0215882062911987,0.0483349561691284,0.138538722089947
0.03381594,0.176765441894531,-0.0280677080154419,0.045438826084137,0.184657804052018
0.03881594,0.208344459533691,-0.0289009809494019,0.0514894127845764,0.216549856031179
0.04381594,0.23569393157959,-0.0328636169433594,0.0606377422809601,0.245578057836966
0.04881594,0.24664306640625,-0.0247780084609985,0.0512662827968597,0.25313036890381
0.05381594,0.240237236022949,-0.0135245323181152,0.0262018442153931,0.242040036330062
0.05881594,0.221426963806152,-0.0170270204544067,0.0099412202835083,0.222303053480358
0.06381594,0.179603576660156,-0.0209610462188721,0.00282788276672363,0.180844704452889
0.06881594,0.141603469848633,0.00303924083709717,-0.0167324542999268,0.142621017683011
0.07381594,0.0858306884765625,0.0174580812454224,-0.0541945099830627,0.102998721338844
0.07881594,0.00408172607421875,0.0205432176589966,-0.0942029356956482,0.0965032505836373
0.08381594,-0.0656623840332031,0.0391476154327393,-0.11523562669754,0.138287143767482
0.08881594,-0.167011260986328,0.0431318283081055,-0.123532831668854,0.212163796180142
0.09381594,-0.244791984558105,0.0585964918136597,-0.160499811172485,0.298524461214098
0.09881594,-0.299174308776855,0.054463267326355,-0.161819815635681,0.344466496560024
0.10381594,-0.342512130737305,0.0604095458984375,-0.176858007907867,0.390182813433656
0.10881594,-0.386091232299805,0.0658301115036011,-0.169936001300812,0.426940613876764
0.11381594,-0.394608497619629,0.0649974346160889,-0.148578524589539,0.426633461966473
0.11881594,-0.42054271697998,0.067518949508667,-0.116272211074829,0.441513547262015
0.12381594,-0.429699897766113,0.0638383626937866,-0.120575308799744,0.450838933305216
0.12881594,-0.425302505493164,0.0580518245697022,-0.114105224609375,0.444153394445872
0.13381594,-0.40329647064209,0.0586733818054199,-0.0881127119064331,0.416958581833204
0.13881594,-0.399123191833496,0.0613139867782593,-0.0650987029075623,0.409019031775111
0.14381594,-0.363479614257813,0.0590968132019043,-0.0408631563186646,0.370512699992797
0.14881594,-0.31662654876709,0.0446512699127197,-0.0119852423667908,0.319983989167533
0.15381594,-0.26746940612793,0.0307079553604126,0.0223162174224854,0.270149727552874
0.15881594,-0.227011680603027,0.0221176147460938,0.0508996844291687,0.233696961656023
0.16381594,-0.17254638671875,0.0136748552322388,0.0415529012680054,0.178005339355615
0.16881594,-0.109249114990234,0.0131233930587769,0.0537374615669251,0.122455327965676
0.17381594,-0.0650262832641602,0.00304830074310303,0.0988940000534058,0.118396507123877
0.17881594,-0.00714683532714844,-0.00313520431518555,0.0869699716567993,0.087319429288537
0.18381594,0.0293378829956055,-0.00549530982971191,0.0807269215583801,0.0860682617059345
0.18881594,0.0661592483520508,-0.00262689590454102,0.0956705212593079,0.116347734669091
0.19381594,0.101465225219727,0.000711441040039063,0.0749377012252808,0.126140228088317
0.19881594,0.127594947814941,-0.014082670211792,0.0906546711921692,0.157152988253969
0.20381594,0.132335662841797,-0.0163866281509399,0.082366019487381,0.156733565033564
0.20881594,0.134782791137695,-0.0269743204116821,0.0575846433639526,0.14903021807638
0.21381594,0.140892028808594,-0.015064001083374,0.0479430556297302,0.149586177481601
0.21881594,0.15427303314209,-0.0138077735900879,0.036675751209259,0.159172654979236
0.22381594,0.143645286560059,-0.0105128288269043,0.0197079181671143,0.145371558288913
0.22881594,0.127193450927734,-0.00746595859527588,0.0287532210350037,0.130616469928337
0.23381594,0.118696212768555,-0.0210658311843872,0.00138115882873535,0.120558980456859
0.23881594,0.102007865905762,-0.0202982425689697,-0.00254702568054199,0.104038986432269
0.24381594,0.0564708709716797,-0.0138013362884521,0.00459271669387817,0.0583140566096826
0.24881594,0.0117807388305664,-0.0101960897445679,0.0043070912361145,0.0161646864612188
0.25381594,-0.0326242446899414,-0.00652360916137695,0.0277322232723236,0.0433125273530139
0.25881594,-0.0831527709960938,-0.0165205001831055,0.281877100467682,0.294350148664302
0.26381594,-0.0918474197387695,-0.0267268419265747,0.60277384519577,0.610316787450691
0.26881594,-0.180172920227051,-0.0312148332595825,0.771244049072266,0.792624772655984
0.27381594,-0.297531127929688,-0.0276834964752197,0.84619927406311,0.897409805768324
0.27881594,-0.380842208862305,-0.0190474987030029,0.846303224563599,0.928241748234104
0.28381594,-0.377620697021484,-0.0262168645858765,0.807869672775269,0.892153643156674
0.28881594,-0.334320068359375,-0.0196341276168823,0.66475635766983,0.744349663892953
0.29381594,-0.270838737487793,-0.0142059326171875,0.514210283756256,0.581349848341079
0.29881594,-0.187284469604492,-0.0104804039001465,0.335942476987839,0.384763120979221
0.30381594,-0.14515209197998,-0.00237977504730225,0.161910444498062,0.217462146529001
0.30881594,-0.103260040283203,-0.00103414058685303,-0.0156029760837555,0.10443734116068
0.31381594,-0.0800294876098633,0.000947475433349609,-0.13165420293808,0.154072858570402
0.31881594,-0.0823860168457031,0.00747501850128174,-0.120096892118454,0.145830707225216
0.32381594,-0.0584802627563477,0.000595450401306152,-0.106606483459473,0.121594564059528
0.32881594,-0.0604257583618164,-0.0112789869308472,-0.0884690880775452,0.107727746495781
0.33381594,-0.0497531890869141,-0.00537574291229248,-0.0811624228954315,0.0953499728706524
0.33881594,-0.044769287109375,0.00501680374145508,-0.0659449398517609,0.0798635866970316
0.34381594,-0.0269584655761719,0.00960707664489746,-0.0423260033130646,0.0510934961060616
0.34881594,0.000723838806152344,-0.00547695159912109,-0.0289539098739624,0.0294762588946756
0.35381594,0.0348520278930664,0.00274062156677246,-0.0232543051242828,0.0419873500193164
0.35881594,0.0691051483154297,-0.00178182125091553,-0.0201106667518616,0.0719939950820357
0.36381594,0.0788841247558594,-0.00468480587005615,-0.0146028697490692,0.0803610375085239
0.36881594,0.0917129516601563,-0.00448024272918701,-0.0197517871856689,0.0939226872175118
0.37381594,0.0911216735839844,0.000463485717773438,-0.0164971649646759,0.0926041611787964
0.37881594,0.098353385925293,-0.00892150402069092,0.00451895594596863,0.0988605215432451
0.38381594,0.0852460861206055,-0.0274922847747803,-0.0136897265911102,0.090609765120315
0.38881594,0.100655555725098,-0.0286986827850342,-0.0227164328098297,0.107103648917895
0.39381594,0.10141658782959,-0.028488039970398,-0.000225573778152466,0.105342031458869
0.39881594,0.0965118408203125,-0.0127620697021484,-0.0168857872486115,0.0988055446450917
0.40381594,0.0888843536376953,-0.00964117050170898,-0.0399921238422394,0.0979425875686717
0.40881594,0.0761852264404297,-0.0184574127197266,-0.00893986225128174,0.0788973126865406
0.41381594,0.0294198989868164,-0.00929725170135498,-0.0415773391723633,0.0517749406397203
0.41881594,-0.00855636596679688,-0.0121502876281738,-0.0533033609390259,0.0553361470957383
0.42381594,-0.0563211441040039,-0.00335180759429932,-0.0725715160369873,0.0919235053032677
0.42881594,-0.0951356887817383,0.00444984436035156,-0.0854913890361786,0.127981944016109
0.43381594,-0.142075538635254,0.0137848854064941,-0.104025810956955,0.17662630350381
0.43881594,-0.174717903137207,0.00197124481201172,-0.12186861038208,0.213030959438366
0.44381594,-0.19361400604248,0.0107406377792358,-0.113868147134781,0.224872629654279
0.44881594,-0.202412605285645,0.0165379047393799,-0.112178325653076,0.232009357177719
0.45381594,-0.213184356689453,0.0180493593215942,-0.105733811855316,0.238648252200747
0.45881594,-0.204216003417969,0.0072634220123291,-0.101841300725937,0.228316849761221
0.46381594,-0.195536613464355,-0.00160682201385498,-0.107653975486755,0.223218564461372
0.46881594,-0.169894218444824,0.00192356109619141,-0.108554840087891,0.201623160511822
0.47381594,-0.161593437194824,0.00560843944549561,-0.0843240022659302,0.182357974587337
0.47881594,-0.11921501159668,0.00276327133178711,-0.0685591101646423,0.13755074061966
0.48381594,-0.0737504959106445,-0.00922012329101563,-0.0579710304737091,0.0942591464779479
0.48881594,-0.0329914093017578,-0.0161399841308594,-0.0528666973114014,0.0643725085737369
0.49381594,0.002685546875,-0.0125594139099121,-0.0563790500164032,0.0578234236320404
0.49881594,0.0312728881835938,-0.0254089832305908,-0.0240590870380402,0.0469302635115124
0.50381594,0.062199592590332,-0.0120915174484253,-0.0215071439743042,0.0669145078031686
0.50881594,0.0790071487426758,-0.0270004272460938,-0.00655430555343628,0.0837502928066923
0.51381594,0.0998954772949219,-0.0211067199707031,0.00757429003715515,0.102381491889252
0.51881594,0.118870735168457,-0.0169327259063721,-0.00466752052307129,0.12016136914143
0.52381594,0.105425834655762,-0.022170901298523,-0.0132133960723877,0.108539160274155
0.52881594,0.120655059814453,-0.0272308588027954,-0.00504085421562195,0.123792460760703
0.53381594,0.106863975524902,-0.0308291912078857,-0.0141732692718506,0.112121495964742
0.53881594,0.0953588485717773,-0.0279480218887329,-0.00919994711875916,0.0997949946410952
0.54381594,0.078577995300293,-0.0333870649337769,-0.0132957994937897,0.0864058778931396
0.54881594,0.057530403137207,-0.0194016695022583,-0.0250037014484406,0.0656609256005973
0.55381594,0.0385303497314453,-0.0273452997207642,-0.00334855914115906,0.0473662972541421
0.55881594,0.0181846618652344,-0.00904083251953125,-0.0436219274997711,0.0481174722797698
0.56381594,0.00557613372802734,-0.0129034519195557,-0.0259823203086853,0.029541044453713
0.56881594,-0.0165081024169922,-0.0193681716918945,-0.0532906949520111,0.0590554120175697
0.57381594,-0.0369157791137695,-0.0206975936889648,-0.0607609152793884,0.0740476465370718
0.57881594,-0.0505895614624023,-0.0170937776565552,-0.0168341100215912,0.0559900725463806
0.58381594,-0.0648727416992188,-0.058739185333252,0.154322504997253,0.177409695501162
0.58881594,-0.0687389373779297,-0.0605268478393555,0.31741926074028,0.330368775628269
0.59381594,-0.0967817306518555,-0.0709918737411499,0.43218657374382,0.448544071468646
0.59881594,-0.117097854614258,-0.0766183137893677,0.49768990278244,0.516988890494547
0.60381594,-0.146828651428223,-0.0787661075592041,0.49882847070694,0.525920712434948
0.60881594,-0.147258758544922,-0.0872554779052734,0.4651138484478,0.495610282793438
0.61381594,-0.163269996643066,-0.0688514709472656,0.411616057157517,0.448135465417912
0.61881594,-0.15073299407959,-0.0546286106109619,0.303052484989166,0.342849134838621
0.62381594,-0.14158821105957,-0.0531561374664307,0.17772188782692,0.23336209176763
0.62881594,-0.140460968017578,-0.036014199256897,0.0714033842086792,0.161631523413605
0.63381594,-0.126492500305176,-0.0353178977966309,-0.00397408008575439,0.131390638368021
0.63881594,-0.0993747711181641,-0.0221667289733887,-0.0895655751228333,0.135604945541271
0.64381594,-0.0952577590942383,-0.0241535902023315,-0.121251076459885,0.156074533893262
0.64881594,-0.09295654296875,-0.0161430835723877,-0.135420650243759,0.165046267877734
0.65381594,-0.0677099227905273,-0.0256760120391846,-0.0992561876773834,0.122864486450656
0.65881594,-0.0246086120605469,-0.0353877544403076,-0.0874686539173126,0.0975122677922148
0.66381594,-0.000370979309082031,-0.0226472616195679,-0.0668207108974457,0.0705552513237175
0.66881594,0.0297155380249023,-0.0424911975860596,-0.0693995952606201,0.0866303578126332
0.67381594,0.071894645690918,-0.0598422288894653,-0.0503043830394745,0.106209525893227
0.67881594,0.102256774902344,-0.0402805805206299,-0.0432505607604981,0.118108357818594
0.68381594,0.117889404296875,-0.0479627847671509,-0.0324519276618958,0.131344843739924
0.68881594,0.124872207641602,-0.0419090986251831,-0.0254619121551514,0.134155692236518
0.69381594,0.114243507385254,-0.0483856201171875,-0.0261465311050415,0.126792698144003
0.69881594,0.11221981048584,-0.0462261438369751,-0.0302903950214386,0.125090568269831
0.70381594,0.0972881317138672,-0.0537512302398682,-0.0680674612522125,0.130335546210524
0.70881594,0.0844030380249023,-0.0451550483703613,-0.0601083934307098,0.113030394947482
0.71381594,0.0603084564208984,-0.0645431280136108,-0.0680324137210846,0.111495895020263
0.71881594,0.0492525100708008,-0.0637726783752441,-0.0741742253303528,0.109519769716634
0.72381594,0.0425071716308594,-0.0431846380233765,-0.095062792301178,0.112732901503342
0.72881594,0.0263090133666992,-0.0493192672729492,-0.0803989768028259,0.097921140616371
0.73381594,-0.0191659927368164,-0.0493137836456299,-0.0596718490123749,0.0797490695844871
0.73881594,-0.0402030944824219,-0.0441014766693115,-0.0188841819763184,0.0625926623438489
0.74381594,-0.0704269409179688,-0.0493991374969482,0.0184824168682098,0.0879876612133528
0.74881594,-0.0834493637084961,-0.0512648820877075,0.0694563984870911,0.120066963522932
0.75381594,-0.111807823181152,-0.0540310144424439,0.105984807014465,0.163257830330067
0.75881594,-0.127403259277344,-0.0644769668579102,0.127552658319473,0.191464227400448
0.76381594,-0.133338928222656,-0.0696473121643066,0.154021680355072,0.215296762378534
0.76881594,-0.113173484802246,-0.0731848478317261,0.19740591943264,0.239025849316519
0.77381594,-0.123034477233887,-0.0745772123336792,0.211347296833992,0.255669558349667
0.77881594,-0.11700439453125,-0.0765272378921509,0.196612924337387,0.241253162664296
0.78381594,-0.106679916381836,-0.0907899141311646,0.182433143258095,0.23001144498961
0.78881594,-0.0982389450073242,-0.0895519256591797,0.17272712290287,0.217956639476118
0.79381594,-0.0836029052734375,-0.0749731063842773,0.161642074584961,0.196821169408165
0.79881594,-0.0581741333007813,-0.0728837251663208,0.106817692518234,0.141796638233552
0.80381594,-0.0611906051635742,-0.0633763074874878,0.0662258863449097,0.110212134237578
0.80881594,-0.0502004623413086,-0.0589098930358887,0.0404371321201324,0.0873248164663519
0.81381594,-0.0443925857543945,-0.0610091686248779,0.0178063213825226,0.0775234506935659
0.81881594,-0.0479202270507813,-0.0578908920288086,-0.0241700112819672,0.0789423396274776
0.82381594,-0.0105619430541992,-0.0487734079360962,-0.0410516858100891,0.0646191989321383
0.82881594,-0.0102167129516602,-0.0512657165527344,-0.0679712295532227,0.0857475536920956
0.83381594,0.00169563293457031,-0.0526630878448486,-0.0630764961242676,0.0821883225021523
0.83881594,0.0163993835449219,-0.0575710535049439,-0.0713933408260346,0.0931685306132113
0.84381594,0.0383033752441406,-0.0497349500656128,-0.0811086893081665,0.102563801091862
0.84881594,0.0647983551025391,-0.0528804063796997,-0.0472303628921509,0.0960513996868406
0.85381594,0.0760946273803711,-0.0584105253219605,-0.0488746464252472,0.107661101832267
0.85881594,0.0872611999511719,-0.0621342658996582,-0.0338364243507385,0.112339163378811
0.86381594,0.0793018341064453,-0.056936502456665,-0.0166083574295044,0.099027186878908
0.86881594,0.0620384216308594,-0.0388873815536499,-0.00647464394569397,0.0735045251448572
0.87381594,0.0650920867919922,-0.0404062271118164,-0.00511842966079712,0.0767843817096971
0.87881594,0.0230522155761719,-0.0459436178207397,0.0119705200195313,0.0527779689924356
0.88381594,0.00438594818115234,-0.0379536151885986,0.0260557234287262,0.0462451529430518
0.88881594,-0.000592231750488281,-0.0326167345046997,0.0203105807304382,0.038428138099627
0.89381594,-0.0145549774169922,-0.044198751449585,0.0236420631408691,0.0521950586441685
0.89881594,-0.0319986343383789,-0.0369324684143066,0.0113148987293243,0.0501592140683036
0.90381594,-0.045527458190918,-0.0211936235427856,0.0299840569496155,0.0584889972503965
0.90881594,-0.0511636734008789,-0.033022403717041,0.0304681956768036,0.0680919346980466
0.91381594,-0.0571537017822266,-0.0300366878509522,0.0305745303630829,0.0714391359927477
0.91881594,-0.0622634887695313,-0.0335583686828613,0.0412388145923615,0.0818751853212654
0.92381594,-0.0613298416137695,-0.0377390384674072,0.0474208891391754,0.0862225331544166
0.92881594,-0.059473991394043,-0.0390181541442871,0.0672971904277802,0.0979208039419558
0.93381594,-0.0660696029663086,-0.0444304943084717,0.0685027539730072,0.105032797556321
0.93881594,-0.0620784759521484,-0.0310248136520386,0.0811946988105774,0.106812243463124
0.94381594,-0.0627212524414063,-0.0328741073608398,0.0729722678661346,0.101683894103823
0.94881594,-0.0474462509155273,-0.0365523099899292,0.0619456768035889,0.0861654511169862
0.95381594,-0.0332489013671875,-0.047726035118103,0.0676418840885162,0.089211481061933
0.95881594,-0.0198554992675781,-0.0360628366470337,0.0580829083919525,0.071192649097104
0.96381594,-0.0172662734985352,-0.0331377983093262,0.0452179610729218,0.0586592011615234
0.96881594,-0.00408935546875,-0.0366697311401367,0.0402040779590607,0.0545688546203596
0.97381594,-0.0159835815429688,-0.025162935256958,0.0285683870315552,0.0412892350046755
0.97881594,-0.012359619140625,-0.0198264122009277,0.000870645046234131,0.0233795814517483
0.98381594,-0.0123214721679688,-0.0140146017074585,-0.0229290723800659,0.0295629852622334
0.98881594,-0.00505352020263672,-0.0263527631759644,-0.0314729809761047,0.0413588530422348
0.99381594,-0.00282192230224609,-0.0186796188354492,-0.0468064546585083,0.0504750988410778
0.99881594,-0.00334930419921875,-0.0215936899185181,-0.0384338200092316,0.0442115799697095
1.00381594,0.00143241882324219,-0.0105899572372437,-0.0526537597179413,0.0537272503521865
1.00881594,0.0192251205444336,-0.00389373302459717,-0.0587925016880035,0.0619784210152916
1.01381594,0.0140190124511719,-0.00995719432830811,-0.0568558871746063,0.0593992452427585
1.01881594,0.0268764495849609,-0.0137608051300049,-0.0416720807552338,0.0514613021074053
1.02381594,0.0297422409057617,-0.0137966871261597,-0.0402056872844696,0.0518791553494278
1.02881594,0.0241861343383789,-0.0095900297164917,-0.0218418836593628,0.0339706586039547
1.03381594,0.0142936706542969,-0.0108388662338257,-0.0183934569358826,0.0256925923188074
1.03881594,0.00303459167480469,-0.00614142417907715,0.0017295777797699,0.00706521598229107
1.04381594,-0.00641632080078125,-0.0115140676498413,0.00415170192718506,0.0138195352800249
1.04881594,-0.0208597183227539,-0.00914645195007324,0.0204918086528778,0.0306382057837236
1.05381594,-0.0270757675170898,0.0105530023574829,0.00584113597869873,0.02964088249223
1.05881594,-0.0289430618286133,0.00569605827331543,0.041053831577301,0.0505525765421045
1.06381594,-0.0363121032714844,0.00173616409301758,0.0351578593254089,0.0505732951477563
1.06881594,-0.0261802673339844,-0.000466823577880859,0.0380583703517914,0.0461959292120623
1.07381594,-0.0321187973022461,-0.00285303592681885,0.047575980424881,0.0574737406780797
1.07881594,-0.0194110870361328,0.00891435146331787,0.037699282169342,0.0433300339028202
1.08381594,-0.0111818313598633,0.0113133192062378,0.029473602771759,0.0334920558397076
1.08881594,-0.00631046295166016,0.00246036052703857,0.0430635213851929,0.043592914454992
1.09381594,-0.00147533416748047,0.00635397434234619,0.0378005504608154,0.0383592389912728
1.09881594,-0.00402545928955078,0.00149965286254883,0.0258004069328308,0.0261555783552887
1.10381594,-0.0189361572265625,0.000037074089050293,0.0300769805908203,0.0355415839047412
1.10881594,-0.00828456878662109,0.00562500953674316,0.0214294195175171,0.0236536431258792
1.11381594,-0.0153903961181641,0.00636124610900879,0.0293518900871277,0.0337470472252048
1.11881594,-0.00684165954589844,0.00729978084564209,0.0247117280960083,0.0266601690022294
1.12381594,-0.00898361206054688,0.0044018030166626,0.0107899904251099,0.0147141105346489
1.12881594,-0.00839424133300781,-0.00528645515441895,0.0119304955005646,0.0155160116829503
1.13381594,-0.00730228424072266,-0.00298941135406494,-0.000641167163848877,0.00791650369216846
1.13881594,-0.00996780395507813,-0.00296509265899658,-0.00370383262634277,0.0110393508091404
1.14381594,-0.00124740600585938,-0.0119400024414063,-0.0223594307899475,0.025378412584216
1.14881594,-0.00584316253662109,-0.000128030776977539,-0.0193384885787964,0.0202023780981711
1.15381594,-0.00224781036376953,-0.0112872123718262,-0.0144504904747009,0.0184735077751248
1.15881594,-0.00156593322753906,-0.0171935558319092,-0.0247957110404968,0.0302141985665995
1.16381594,0.000946044921875,-0.00693619251251221,-0.0182688534259796,0.0195641706459733
1.16881594,-0.00484752655029297,-0.00720310211181641,-0.0264272689819336,0.0278169685539693
1.17381594,0.00779342651367188,-0.00834882259368897,-0.021775871515274,0.0245892032358639
1.17881594,-0.00448036193847656,-0.0162273645401001,-0.00906690955162048,0.0191209270652423
1.18381594,-0.00974655151367188,-0.0106028318405151,-0.0235918760299683,0.0276404038331623
1.18881594,-0.00110244750976563,-0.00228035449981689,-0.0124681890010834,0.0127228591174846
1.19381594,-0.00809955596923828,-0.00168502330780029,-0.0120308697223663,0.0146008197277826
1.19881594,-0.0148115158081055,-0.0201773643493652,0.0124804079532623,0.0279690474507204
1.20381594,-0.0246009826660156,0.00598788261413574,0.0143748223781586,0.029115264119322
1.20881594,-0.0220155715942383,-0.00161302089691162,0.0120423436164856,0.025145680917653
1.21381594,-0.0127153396606445,-0.00405049324035645,0.0189237296581268,0.0231558610798563
1.21881594,-0.00705242156982422,-0.00388097763061523,0.0242619514465332,0.025562490593872
1.22381594,-0.0122709274291992,-0.00527620315551758,0.0315660834312439,0.0342758165898235
1.22881594,-0.0232887268066406,0.00569391250610352,0.0325941741466522,0.0404619033685243
1.23381594,-0.00526714324951172,0.00610411167144775,0.0320992469787598,0.0330962933560814
1.23881594,-0.0108041763305664,0.000407099723815918,0.0292260646820068,0.0311618165896013
1.24381594,-0.00584030151367188,-0.00314688682556152,0.0330058634281158,0.0336659923230985
1.24881594,-0.00681781768798828,0.00839519500732422,0.0362962186336517,0.0378731755248949
1.25381594,-0.0141868591308594,0.0045008659362793,0.0423273742198944,0.0448679325858256
1.25881594,-0.00959587097167969,-0.00319302082061768,0.0122712254524231,0.0159015438171965
1.26381594,-0.00632095336914063,0.00544321537017822,0.0174174010753632,0.019311885078393
1.26881594,-0.0188274383544922,-0.000196933746337891,0.0211546421051025,0.0283201359546106
1.27381594,-0.0143356323242188,0.000819087028503418,0.00423067808151245,0.0149692984045625
1.27881594,-0.00615882873535156,-0.0000892877578735352,0.000195831060409546,0.00616258821432354
1.28381594,-0.00822162628173828,0.000215888023376465,0.00892087817192078,0.0121335820643971
1.28881594,0.0000810623168945313,0.00109434127807617,-0.0158480405807495,0.0158859857793341
1.29381594,-0.00919818878173828,-0.011809229850769,-0.0194950997829437,0.0245789239406391
1.29881594,-0.0106468200683594,-0.0050729513168335,-0.017337292432785,0.0209683409341533
1.30381594,-0.00927066802978516,-0.0106034278869629,-0.0229575932025909,0.0269337901961115
1.30881594,-0.00741767883300781,-0.00989246368408203,-0.0190360248088837,0.0226991858341873
1.31381594,0.00269508361816406,-0.000380754470825195,-0.0245731770992279,0.0247234601628892
1.31881594,-0.0183982849121094,0.00602626800537109,-0.0351634621620178,0.0401407755904064
1.32381594,-0.00417041778564453,0.0131310224533081,-0.0150712728500366,0.020419583749341
1.32881594,-0.00413799285888672,-0.000514984130859375,-0.00469979643821716,0.00628301520895129
1.33381594,-0.00649261474609375,0.0010601282119751,0.00301885604858398,0.00723819106608078
1.33881594,-0.00879287719726563,-0.0103409290313721,0.00440260767936707,0.014269984478495
1.34381594,-0.00069427490234375,-0.00603055953979492,-0.0130022764205933,0.0143495246653174
1.34881594,-0.0133686065673828,-0.00850939750671387,0.0209923088550568,0.0263022150882171
1.35381594,-0.00769138336181641,-0.00470852851867676,0.0194872617721558,0.0214727965157346
1.35881594,-0.00205421447753906,-0.0102640390396118,0.0233356356620789,0.0255758125243304
1.36381594,-0.00393104553222656,-0.00823211669921875,0.0379369854927063,0.0390184024865166
1.36881594,-0.0149812698364258,-0.00691282749176025,0.0339037775993347,0.0377053280763845
1.37381594,-0.0218429565429688,0.00400161743164063,0.0277179479598999,0.035516367096241
1.37881594,0.000777244567871094,0.0198709964752197,0.0411399602890015,0.0456941674901414
1.38381594,-0.0155735015869141,0.00766062736511231,0.0477872788906097,0.0508413531200109
1.38881594,-0.00432872772216797,-0.00367677211761475,0.0361662209033966,0.0366094533055441
1.39381594,-0.00354290008544922,0.00416386127471924,0.0324691534042358,0.0329262175859661
1.39881594,-0.00101947784423828,0.0106810331344605,0.0446396470069885,0.0459110214306203
1.40381594,-0.00673294067382813,0.0232429504394531,0.0316447615623474,0.039836643553216
1.40881594,-0.00221157073974609,-0.00351893901824951,0.0299476981163025,0.0302347250593791
1.41381594,0.00692176818847656,0.00311374664306641,0.0325025916099548,0.0333770093683619
1.41881594,-0.00406837463378906,0.00851511955261231,0.00485247373580933,0.0106115707844248
1.42381594,-0.00640010833740234,-0.00252163410186768,-0.000734776258468628,0.00691808654356088
1.42881594,-0.0125331878662109,-0.00170290470123291,0.00869709253311157,0.0153499218578051
1.43381594,-0.0124483108520508,0.0093839168548584,0.0157880187034607,0.0221873809447849
1.43881594,0.00150775909423828,0.00503242015838623,-0.00152763724327087,0.0054710388121287
1.44381594,-0.0040740966796875,0.00292026996612549,0.0118863582611084,0.0129000679510581
1.44881594,-0.00365638732910156,0.00606203079223633,0.0080161988735199,0.0106947103750526
1.45381594,-0.00368595123291016,0.0032879114151001,-0.00303646922111511,0.00579799476506463
1.45881594,-0.011164665222168,0.0016247034072876,-0.0176777243614197,0.0209712028573248
1.46381594,-0.00340557098388672,-0.012743353843689,-0.0166004598140717,0.0212029773133483
1.46881594,-0.00790023803710938,-0.00317168235778809,-0.00287306308746338,0.00898486624976903
1.47381594,-0.0121021270751953,0.0079883337020874,-0.0128209590911865,0.0193559279575524
1.47881594,-0.00990486145019531,0.0107262134552002,-0.0143551528453827,0.020475066511452
1.48381594,-0.0100240707397461,-0.00904488563537598,-0.0118723511695862,0.017979006442138
1.48881594,-0.0154685974121094,-0.00705015659332275,-0.000987201929092407,0.0170281173808819
1.49381594,-0.00734806060791016,-0.008247971534729,0.00179827213287354,0.0111918189674016
1.49881594,-0.00925445556640625,-0.00359094142913818,0.00367426872253418,0.0105848976765712
1.50381594,0.00756072998046875,-0.000769257545471191,0.0185812711715698,0.0200753588600611
1.50881594,0.00752449035644531,0.00165653228759766,0.0145804286003113,0.0164909354650628
1.51381594,0.00150871276855469,-0.000451207160949707,0.0140156149864197,0.0141038032306057
1.51881594,-0.00959491729736328,-0.0100961923599243,0.0135252475738525,0.0194146300517378
1.52381594,-0.0298185348510742,-0.00366818904876709,0.00384607911109924,0.0302884954411911
1.52881594,0.00716972351074219,-0.0109164714813232,0.0229143798351288,0.0263750466928798
1.53381594,0.00451278686523438,0.00139999389648438,0.0221647918224335,0.0226628159047599
1.53881594,-0.00593185424804688,0.00368189811706543,0.0142079591751099,0.0158306466224886
1.54381594,-0.0175628662109375,-0.0000216960906982422,0.0163671672344208,0.0240070594522349
1.54881594,-0.019648551940918,-0.00328207015991211,0.00837740302085877,0.0216106098776372
1.55381594,-0.00622272491455078,0.00144612789154053,0.00196009874343872,0.00668248294609814
1.55881594,0.00986957550048828,-0.00480711460113525,0.0106535851955414,0.015297573299937
1.56381594,-0.00455856323242188,-0.00800645351409912,0.00504970550537109,0.01050634676319
1.56881594,-0.00372886657714844,-0.000763773918151856,0.00666075944900513,0.00767160432932609
1.57381594,-0.00925445556640625,0.00326716899871826,-0.00767195224761963,0.0124570539208325
1.57881594,-0.00674724578857422,0.00235939025878906,-0.000766068696975708,0.00718880444672042
1.58381594,-0.00125789642333984,-0.021735668182373,0.0118953585624695,0.0248096983068273
1.58881594,-0.00681495666503906,0.00397658348083496,0.00567927956581116,0.00972168025153317
1.59381594,-0.00730037689208984,-0.00601541996002197,-0.00189071893692017,0.0096465329606247
1.59881594,0.00385570526123047,-0.00540804862976074,0.000776201486587524,0.00668699796553865
1.60381594,-0.00481605529785156,-0.00438845157623291,0.00319060683250427,0.00725485133056
1.60881594,-0.00241851806640625,-0.0111420154571533,-0.000905513763427734,0.0114373813987614
1.61381594,-0.00585269927978516,0.00199496746063232,0.00258541107177734,0.00670211417678395
1.61881594,-0.00484275817871094,0.00168168544769287,-0.015821099281311,0.0166309216579104
1.62381594,0.0007476806640625,-0.0119696855545044,-0.0139869451522827,0.0184246311589158
1.62881594,-0.00144672393798828,0.00219786167144775,-0.00324270129203796,0.00417596907902251
1.63381594,-0.00575733184814453,-0.00364947319030762,0.00653168559074402,0.00944078604951762
1.63881594,-0.00149917602539063,-0.00768589973449707,-0.0134179294109344,0.0155358106695682
1.64381594,-0.006439208984375,-0.00282716751098633,-0.0105571448802948,0.0126850146433958
1.64881594,-0.0145044326782227,-0.00490701198577881,0.00289645791053772,0.0155835426772344
1.65381594,0.00217247009277344,-0.0121339559555054,-0.0103417336940765,0.0160904931320745
1.65881594,-0.000692367553710938,-0.011954665184021,-0.00240293145179749,0.012213413611825
1.66381594,-0.00763607025146484,-0.00132787227630615,0.0117762386798859,0.0140979647862069
1.66881594,-0.0100593566894531,0.0111126899719238,0.00212925672531128,0.0151398900134719
1.67381594,-0.00556087493896484,0.0112707614898682,0.0127780437469482,0.0179229405134098
1.67881594,-0.00755023956298828,0.00127828121185303,-0.0061524510383606,0.00982307355640353
1.68381594,-0.00425624847412109,-0.00427639484405518,-0.00556790828704834,0.00821004303452189
1.68881594,-0.00141143798828125,-0.00422227382659912,-0.00580519437789917,0.00731573887086872
1.69381594,0.000917434692382813,-0.00226187705993652,0.018124520778656,0.0182881389896563
1.69881594,-0.00902938842773438,-0.015466570854187,0.00033867359161377,0.0179125478134225
1.70381594,-0.00106906890869141,-0.0102672576904297,-0.00545439124107361,0.0116751819096714
1.70881594,-0.0108985900878906,0.00517952442169189,0.00551816821098328,0.0132686442240146
1.71381594,-0.0122146606445313,0.00792086124420166,0.0164780020713806,0.0219877813745585
1.71881594,-0.015202522277832,-0.000403642654418945,0.0245369672775269,0.0288676700510947
1.72381594,0.00331497192382813,-0.00598227977752686,0.0114258527755737,0.0133164117479696
1.72881594,0.00513744354248047,0.00197339057922363,0.00710418820381165,0.00898649467620826
1.73381594,-0.00102329254150391,-0.0106724500656128,-0.00535735487937927,0.0119853898281243
1.73881594,-0.00530242919921875,-0.00489580631256104,0.00470200181007385,0.00861356464448824
1.74381594,0.000533103942871094,-0.00292658805847168,-0.00191912055015564,0.00354007643475723
1.74881594,-0.00165081024169922,0.00141727924346924,0.0102486312389374,0.0104770366602294
1.75381594,-0.00367069244384766,-0.00214004516601563,0.0099061131477356,0.0107789078308355
1.75881594,-0.0000152587890625,-0.00212681293487549,0.0127454698085785,0.0129217091258077
1.76381594,-0.0127954483032227,-0.0128861665725708,0.00220060348510742,0.0182926062089346
1.76881594,-0.00159072875976563,-0.0136184692382813,-0.00134396553039551,0.0137767690598358
1.77381594,-0.00411033630371094,0.000642538070678711,0.00423267483711243,0.00593491836326333
1.77881594,-0.00474643707275391,0.00123453140258789,-0.00664275884628296,0.00825705624054111
1.78381594,0.00417327880859375,-0.00871706008911133,0.00201365351676941,0.00987209162726081
1.78881594,0.0143747329711914,-0.00652217864990234,-0.0186352431774139,0.0244222040490954
1.79381594,-0.00539016723632813,-0.00715816020965576,-0.00201341509819031,0.00918406232450025
1.79881594,-0.00309276580810547,-0.0111222267150879,0.00705894827842712,0.0135313664588286
1.80381594,0.00964546203613281,-0.00870382785797119,0.00559166073799133,0.0141441941120895
1.80881594,0.00955390930175781,-0.00945019721984863,0.00415059924125671,0.0140645257474886
1.81381594,0.00546360015869141,0.000902771949768066,0.00917613506317139,0.0107176200056218
1.81881594,-0.0190362930297852,-0.00623452663421631,-0.0221851170063019,0.0298902859011403
1.82381594,-0.0116291046142578,0.00528311729431152,0.00255024433135986,0.0130250201007307
1.82881594,-0.00153827667236328,-0.00479435920715332,0.00165992975234985,0.005301654657811
1.83381594,-0.00462150573730469,0.000798940658569336,-0.00237146019935608,0.00525551566765673
1.83881594,-0.00787162780761719,0.0030670166015625,0.0155484974384308,0.0176953351979781
1.84381594,-0.00519752502441406,0.00712811946868897,0.0174364745616913,0.0195411104771408
1.84881594,-0.00451183319091797,0.00323808193206787,-0.00208348035812378,0.00593150096890669
1.85381594,-0.00449180603027344,0.0114355087280273,0.00211971998214722,0.0124675737048194
1.85881594,-0.00800228118896484,0.00396883487701416,0.0123283565044403,0.0152242086365381
1.86381594,-0.0139150619506836,0.00310015678405762,0.0113053619861603,0.0181948105462854
1.86881594,-0.000298500061035156,-0.00270533561706543,0.0146583914756775,0.0149089363719085
1.87381594,0.00515460968017578,0.00153100490570068,0.0134591460227966,0.0144935360985235
1.87881594,-0.00889205932617188,-0.00640106201171875,0.00433692336082459,0.0117835146783842
1.88381594,-0.00327491760253906,0.000537753105163574,0.00689327716827393,0.00765059042324054
1.88881594,0.00229835510253906,-0.00871038436889648,-0.00410088896751404,0.00989800597873945
1.89381594,0.00782680511474609,-0.00618147850036621,-0.00704041123390198,0.0122080688520813
1.89881594,-0.000599861145019531,-0.00894033908843994,-0.00833937525749207,0.0122406975330192
1.90381594,-0.00440025329589844,-0.00283551216125488,0.00763827562332153,0.00925989269821834
1.90881594,0.00443363189697266,0.00758898258209229,0.00161170959472656,0.00893573479054113
1.91381594,-0.00439453125,0.00638139247894287,0.0177385210990906,0.0193568903923233
1.91881594,-0.00434970855712891,0.00278198719024658,-0.00240278244018555,0.00569497855250751
1.92381594,0.00122928619384766,-0.00555264949798584,-0.00799497961997986,0.00981135872944008
1.92881594,0.00874710083007813,-0.011451244354248,0.0115639269351959,0.0184761244950017
1.93381594,-0.00769805908203125,0.0105501413345337,0.0184156596660614,0.022576583371832
1.93881594,-0.00818252563476563,-0.0024406909942627,0.00193345546722412,0.00875493851130951
1.94381594,-0.000772476196289063,-0.00169503688812256,0.0214406549930573,0.0215214208652041
1.94881594,-0.00219154357910156,0.00407040119171143,0.0120631754398346,0.0129186388916486
1.95381594,0.000506401062011719,0.00190317630767822,0.0314073264598846,0.0314690113834465
1.95881594,-0.010528564453125,0.00387024879455566,0.0184396207332611,0.0215835378926134
1.96381594,-0.00916481018066406,0.00275349617004395,0.0219712257385254,0.0239647709619619
1.96881594,-0.00828170776367188,0.00805819034576416,-0.000217020511627197,0.0115571714979876
1.97381594,-0.00537014007568359,0.00680792331695557,0.00829127430915833,0.0119971435763568
1.97881594,-0.00439262390136719,-0.000293374061584473,0.012654572725296,0.0133984858823182
1.98381594,-0.00512886047363281,0.00749361515045166,0.0148503184318542,0.0174066491694565
1.98881594,0.00269126892089844,-0.00387251377105713,0.00926163792610169,0.0103931337134584
1.99381594,-0.00818347930908203,0.016154408454895,-0.000915586948394775,0.018132086079374
1.99881594,0.000891685485839844,0.00606727600097656,0.00166201591491699,0.00635367909003287
2.00381594,-0.000570297241210938,-0.00215959548950195,-0.0106033384799957,0.0108360453368823
2.00881594,-0.00386142730712891,0.00462472438812256,-0.0036827027797699,0.00706123192357122
2.01381594,-0.00689983367919922,0.00591135025024414,0.000804334878921509,0.00912133330051714
2.01881594,-0.00465011596679688,0.00246512889862061,-0.0047016441822052,0.00705732931125774
2.02381594,0.0103044509887695,0.00709426403045654,-0.00548714399337769,0.0136608580081137
2.02881594,0.000913619995117188,-0.00638103485107422,-0.00219482183456421,0.00680951908372254
2.03381594,-0.000644683837890625,0.000792264938354492,-0.000890880823135376,0.00135534852507154
2.03881594,-0.00382804870605469,0.00245797634124756,0.0134738087654114,0.014221080382198
2.04381594,-0.00061798095703125,-0.0117815732955933,0.0021723210811615,0.0119960972262794
2.04881594,0.00495433807373047,-0.012372612953186,0.0107876360416412,0.0171464313606383
2.05381594,-0.00383186340332031,0.00750732421875,-0.00139006972312927,0.0085425633098208
2.05881594,-0.0076446533203125,0.00280320644378662,-0.000730782747268677,0.00817512900069212
2.06381594,-0.00201034545898438,0.00119256973266602,-0.000328987836837769,0.00236049664869861
2.06881594,0.00110816955566406,0.00303840637207031,-0.00174400210380554,0.00367443824060445
2.07381594,-0.00215911865234375,0.00105476379394531,-0.00720220804214478,0.00759250424420372
2.07881594,-0.00360870361328125,-0.0018991231918335,-0.00769352912902832,0.00870745663931072
2.08381594,-0.00789737701416016,0.00259578227996826,0.0113812685012817,0.0140939675764864
2.08881594,0.00410366058349609,-0.00381779670715332,-0.00550875067710877,0.00785887624945428
2.09381594,-0.00353050231933594,0.00405776500701904,-0.00473079085350037,0.0071631198215992
2.09881594,0.00418567657470703,-0.00197136402130127,0.00331172347068787,0.0056897870644548
2.10381594,0.000606536865234375,0.00142228603363037,0.00237938761711121,0.00283765219200847
2.10881594,0.00900077819824219,0.00279712677001953,0.00641494989395142,0.0114012941582708
2.11381594,-0.0126142501831055,-0.00244057178497314,-0.00772172212600708,0.0149900197101555
2.11881594,-0.00243949890136719,-0.00722587108612061,-0.0022108256816864,0.00794053638224835
2.12381594,0.00129127502441406,0.00581693649291992,0.00881427526473999,0.0106393416052849
2.12881594,0.00394535064697266,-0.0104169845581055,0.00689107179641724,0.0130983292642517
2.13381594,-0.00786018371582031,0.000112533569335938,0.00320723652839661,0.00849008350958669
2.13881594,-0.00434303283691406,0.00784873962402344,0.0142121911048889,0.016806279300015
2.14381594,-0.00810050964355469,-0.00538802146911621,0.0142406523227692,0.0172465999668042
2.14881594,-0.00802421569824219,0.00333786010742188,0.0040629506111145,0.00959358719859211
2.15381594,-0.00404262542724609,-0.0110584497451782,0.000297009944915772,0.0117779601807371
2.15881594,-0.00393009185791016,0.000130176544189453,-0.00535395741462708,0.00664284787887763
2.16381594,-0.000719070434570313,0.00100958347320557,0.00843533873558044,0.00852591699837776
2.16881594,0.00164699554443359,-0.00571584701538086,0.00981158018112183,0.0114739098426476
2.17381594,-0.00223445892333984,-0.00691497325897217,-0.00799909234046936,0.0108071800264338
2.17881594,0.00516128540039063,-0.00927054882049561,0.00666519999504089,0.0125302367651761
2.18381594,0.0036773681640625,0.0021747350692749,-0.000526160001754761,0.00430457356576015
2.18881594,0.000624656677246094,-0.00590455532073975,0.00799518823623657,0.00995876520623716
2.19381594,-0.00314807891845703,0.00516867637634277,0.0135436356067657,0.0148342738888376
2.19881594,-0.00759220123291016,0.0039057731628418,0.00443163514137268,0.00961956202676749
2.20381594,0.0101118087768555,0.00727808475494385,-0.0124770700931549,0.0176322565926582
2.20881594,0.000263214111328125,-0.00120997428894043,0.00599956512451172,0.00612601837505867
2.21381594,-0.00744152069091797,-0.00547981262207031,-0.00302198529243469,0.00972301247937351
2.21881594,-0.00961112976074219,-0.0106440782546997,0.0033455491065979,0.0147262661932566
2.22381594,-0.000215530395507813,-0.0143560171127319,0.00116708874702454,0.0144049913861783
2.22881594,-0.00283145904541016,-0.00147223472595215,0.00838682055473328,0.00897348284845026
2.23381594,0.00395965576171875,-0.00161314010620117,0.00682207942008972,0.00805120254170512
2.23881594,-0.00962924957275391,-0.00573647022247314,-0.00835481286048889,0.0139797151573805
2.24381594,-0.00745677947998047,-0.00121164321899414,-0.00125741958618164,0.00765850791727119
2.24881594,-0.000151634216308594,-0.00230932235717773,-0.00142744183540344,0.00271910883900891
2.25381594,-0.00113773345947266,-0.00562822818756104,-0.00587314367294312,0.00821372062825928
2.25881594,-0.00756645202636719,0.00841593742370606,-0.00952607393264771,0.0147927442875662
2.26381594,-0.00103378295898438,-0.000954627990722656,0.00151491165161133,0.00206760226328601
2.26881594,-0.0108976364135742,0.00211715698242188,0.00499927997589111,0.0121751235463145
2.27381594,0.00434589385986328,0.00613260269165039,-0.00453099608421326,0.00877641924306211
2.27881594,0.000378608703613281,0.00366663932800293,-0.00437682867050171,0.00572225634894447
2.28381594,-0.00280570983886719,0.00361526012420654,-0.00819137692451477,0.00938300428354731
2.28881594,-0.0121402740478516,-0.00126552581787109,0.00539505481719971,0.0133452023601452
2.29381594,0.00987052917480469,-0.013755202293396,-0.00480112433433533,0.0175978331392437
2.29881594,0.000316619873046875,-0.000911593437194824,-0.0101990699768066,0.010244621961329
2.30381594,-0.000340461730957031,0.00352311134338379,-0.00329288840293884,0.00483439156071733
2.30881594,-0.00130081176757813,-0.00757265090942383,-0.0070483386516571,0.0104267075723409
2.31381594,-0.0109109878540039,0.00175189971923828,-0.00876104831695557,0.0141022968408879
2.31881594,-0.00717353820800781,-0.010036826133728,-0.00774738192558289,0.0145677539779227
2.32381594,0.00212574005126953,0.00393879413604736,-0.00312426686286926,0.00545838011154916
2.32881594,0.00211048126220703,-0.00128507614135742,-0.0221190452575684,0.0222566330551944
2.33381594,-0.00300025939941406,-0.00255441665649414,-0.0142757892608643,0.0148096171435778
2.33881594,-0.017425537109375,0.000787615776062012,-0.0143487155437469,0.0225866181602353
2.34381594,-0.0172605514526367,-0.000515580177307129,-0.0212991833686829,0.0274198408372683
2.34881594,-0.0217218399047852,0.0038830041885376,-0.0129814743995667,0.0256014594889417
2.35381594,-0.0295209884643555,-0.000922441482543945,-0.0296983122825623,0.0418847157162838
2.35881594,-0.0255422592163086,0.00667309761047363,-0.0352337062358856,0.0440267111275496
2.36381594,-0.030604362487793,-0.0022052526473999,-0.0396851301193237,0.0501637288796472
2.36881594,-0.013763427734375,0.0000960826873779297,-0.0430935323238373,0.0452381885471532
2.37381594,-0.0186920166015625,-0.00404155254364014,-0.0318691432476044,0.0371667583054054
2.37881594,-0.0196266174316406,0.000383257865905762,-0.0339478850364685,0.0392149193145803
2.38381594,-0.0116128921508789,0.00279772281646729,-0.00839275121688843,0.0145987941301434
2.38881594,-0.000649452209472656,0.00434970855712891,0.00221261382102966,0.00492315068074915
2.39381594,-0.00335788726806641,0.00158488750457764,0.0183747410774231,0.0187461565385961
2.39881594,0.00537776947021484,-0.0085364580154419,0.0405035018920898,0.0417411689516082
2.40381594,0.0220260620117188,0.00436604022979736,0.0564064383506775,0.0607115804640356
2.40881594,0.0376749038696289,-0.0169601440429688,0.0907367765903473,0.0997005892337183
2.41381594,0.0441713333129883,-0.00815033912658691,0.101892113685608,0.111353210756791
2.41881594,0.0528860092163086,-0.0101218223571777,0.111166834831238,0.123521036366497
2.42381594,0.0665531158447266,-0.0156903266906738,0.109862327575684,0.129403379401963
2.42881594,0.0479907989501953,-0.0248833894729614,0.123064577579498,0.134414248167229
2.43381594,0.0310354232788086,-0.0404216051101685,0.0948392748832703,0.107664254598087
2.43881594,0.0159492492675781,-0.0259222984313965,0.0845814645290375,0.0898908685576157
2.44381594,0.0130987167358398,-0.0203104019165039,0.0522352755069733,0.0575553022181719
2.44881594,0.0125236511230469,-0.0166915655136108,0.0206291079521179,0.0293429768709157
2.45381594,0.0231008529663086,-0.0187132358551025,-0.0106100738048553,0.0315659352797312
2.45881594,0.0133514404296875,-0.0128933191299438,-0.0520979762077332,0.0553054948868157
2.46381594,0.0147571563720703,-0.000010371208190918,-0.0530035197734833,0.055019513630436
2.46881594,0.0188694000244141,-0.005165696144104,-0.08323934674263,0.0855074705512586
2.47381594,0.00881290435791016,-0.0091785192489624,-0.0817270576953888,0.0827116948101697
2.47881594,-0.0090179443359375,-0.00887537002563477,-0.0997054278850555,0.100505063866852
2.48381594,-0.0322504043579102,-0.00838136672973633,-0.100695550441742,0.106065686101927
2.48881594,-0.0498676300048828,-0.00775861740112305,-0.0964386165142059,0.10884568627858
2.49381594,-0.0885286331176758,0.00217187404632568,-0.0890021026134491,0.125552420080905
2.49881594,-0.0832881927490234,0.0108665227890015,-0.0683121681213379,0.108266138207476
2.50381594,-0.102085113525391,0.00316715240478516,-0.0626193881034851,0.119802291398378
2.50881594,-0.0915689468383789,0.0128188133239746,-0.0382475852966309,0.100060340700738
2.51381594,-0.0907735824584961,0.0130540132522583,-0.0111792683601379,0.0923862899753394
2.51881594,-0.0741472244262695,0.016154408454895,0.0261919498443604,0.0802794745828388
2.52381594,-0.0559778213500977,0.0175632238388062,0.0359511375427246,0.0688074676567258
2.52881594,-0.0254344940185547,0.0206189155578613,0.0577054917812347,0.0663473959283728
2.53381594,-0.00588703155517578,0.0294300317764282,0.0701074600219727,0.0762616539397468
2.53881594,0.0233316421508789,0.00430572032928467,0.0882930159568787,0.0914251684153347
2.54381594,0.0528459548950195,0.00225663185119629,0.0885234773159027,0.103122225403535
2.54881594,0.0710430145263672,0.00645065307617188,0.0743450224399567,0.103033505228641
2.55381594,0.100579261779785,0.00624048709869385,0.102605640888214,0.143816025259624
2.55881594,0.108101844787598,0.00421512126922607,0.0905247926712036,0.141062093355942
2.56381594,0.105141639709473,-0.00350606441497803,0.0730741322040558,0.128089366013945
2.56881594,0.0869731903076172,-0.00852692127227783,0.0535489022731781,0.102491605282243
2.57381594,0.0485076904296875,-0.0296558141708374,0.0286363959312439,0.0636593003173032
2.57881594,0.0521450042724609,-0.0282067060470581,0.0261323153972626,0.0647890241061101
2.58381594,0.0480117797851563,-0.0315061807632446,0.0223827064037323,0.0616340487910722
2.58881594,0.0359888076782227,-0.0248962640762329,0.0040726363658905,0.0439500240047989
2.59381594,0.037531852722168,-0.0229759216308594,0.0113861858844757,0.0454552326200376
2.59881594,0.0204524993896484,-0.0317552089691162,0.00703582167625427,0.0384213588335428
2.60381594,0.0138635635375977,-0.017880916595459,0.00750184059143066,0.0238370129108914
2.60881594,0.013667106628418,-0.00835037231445313,-0.00494945049285889,0.016763519366881
2.61381594,-0.0194292068481445,-0.0119942426681519,-0.0206677317619324,0.0307979069437144
2.61881594,-0.0182723999023438,-0.00189721584320068,-0.0390040874481201,0.0431137897175308
2.62381594,-0.0309638977050781,-0.000147700309753418,-0.0321674048900604,0.0446489273536681
2.62881594,-0.0417661666870117,0.0053410530090332,-0.0420894324779511,0.0595353664076115
2.63381594,-0.0545434951782227,0.00785303115844727,-0.0614294707775116,0.0825241955103925
2.63881594,-0.0564737319946289,0.0154354572296143,-0.0568924844264984,0.0816351059869943
2.64381594,-0.0607290267944336,0.0244582891464233,-0.0687541365623474,0.0949386849382432
2.64881594,-0.0589599609375,0.0138630867004395,-0.0568695962429047,0.0830819664153806
2.65381594,-0.0589494705200195,0.0189995765686035,-0.0687913596630096,0.0925649779812129
2.65881594,-0.0694913864135742,0.0164047479629517,-0.0856853425502777,0.111535404555536
2.66381594,-0.0689983367919922,0.0128912925720215,-0.0716354548931122,0.100292543601116
2.66881594,-0.0627870559692383,0.0208567380905151,-0.0622724294662476,0.0908574344381866
2.67381594,-0.0587882995605469,0.0188412666320801,-0.0332043468952179,0.070096976726958
2.67881594,-0.0288667678833008,0.0332052707672119,-0.0230534374713898,0.0496723391234951
2.68381594,-0.0161581039428711,0.0262629985809326,-0.000133007764816284,0.0308358088682006
2.68881594,-0.0133504867553711,0.0173168182373047,0.0314461290836334,0.0383010016163249
2.69381594,0.0280113220214844,0.0154691934585571,0.0599905550479889,0.0679911523848166
2.69881594,0.0342445373535156,0.02541184425354,0.0873940289020538,0.0972428221240803
2.70381594,0.0410003662109375,-0.0017547607421875,0.0769799947738648,0.0872354790786269
2.70881594,0.0586118698120117,0.00354671478271484,0.108923733234406,0.123742919515947
2.71381594,0.0659112930297852,-0.00773859024047852,0.115292549133301,0.13302840378439
2.71881594,0.07342529296875,-0.00678277015686035,0.117585510015488,0.138793486101293
2.72381594,0.0668182373046875,-0.0034559965133667,0.0967479944229126,0.117629907647936
2.72881594,0.0318536758422852,-0.0175917148590088,0.048812747001648,0.060883572219384
2.73381594,0.0057373046875,-0.0191490650177002,0.0349090397357941,0.0402274087085481
2.73881594,0.00212860107421875,-0.000719308853149414,0.00604277849197388,0.00644697756025616
2.74381594,0.0163497924804688,-0.00201737880706787,-0.0123585164546967,0.0205941365530727
2.74881594,0.0272207260131836,-0.00313961505889893,-0.0204892158508301,0.0342145155392383
2.75381594,0.0261745452880859,-0.00501525402069092,-0.04365473985672,0.0511468073870502
2.75881594,0.0345535278320313,0.0138007402420044,-0.0366396903991699,0.0522194755758162
2.76381594,0.0175504684448242,-0.0123213529586792,-0.0547648966312408,0.0588135068194001
2.76881594,0.00556755065917969,0.00289261341094971,-0.0415297150611877,0.0420009769618658
2.77381594,-0.00666618347167969,0.00686120986938477,-0.0579961240291595,0.0587797975953941
2.77881594,-0.0214366912841797,0.00156021118164063,-0.0554748773574829,0.0594930921197773
2.78381594,-0.0308637619018555,0.004402756690979,-0.048507958650589,0.0576626232291043
2.78881594,-0.0464506149291992,0.000747919082641602,-0.0467490255832672,0.0659066795039767
2.79381594,-0.0543975830078125,0.00757110118865967,-0.0469313263893127,0.0722424252566384
2.79881594,-0.0586891174316406,0.0137690305709839,-0.0486942827701569,0.0774927860014698
2.80381594,-0.0707330703735352,0.0108796358108521,-0.0406779050827026,0.0823178333155193
2.80881594,-0.0645265579223633,0.0176904201507568,-0.0334188044071198,0.0747893316618068
2.81381594,-0.0625181198120117,0.0246059894561768,-0.0370107591152191,0.0767057123833115
2.81881594,-0.0241765975952148,0.0114138126373291,-0.00537917017936707,0.0272712020640747
2.82381594,-0.0233802795410156,0.0238765478134155,-0.00273647904396057,0.0335293203697956
2.82881594,-0.00264644622802734,0.0180479288101196,0.00697183609008789,0.0195278752157023
2.83381594,0.0108757019042969,0.0095980167388916,0.0179022550582886,0.0230411274334219
2.83881594,0.0330419540405273,0.00510537624359131,0.0482673048973084,0.0587159971000636
2.84381594,0.0507717132568359,-0.0120974779129028,0.0530617535114288,0.0744289293527401
2.84881594,0.0566368103027344,-0.00430178642272949,0.071048378944397,0.0909621118835822
2.85381594,0.0562028884887695,-0.0031965970993042,0.0795063972473145,0.0974179147320662
2.85881594,0.0519227981567383,-0.0159673690795898,0.081762433052063,0.0981632787876521
2.86381594,0.0322151184082031,-0.0186299085617065,0.0560763478279114,0.0673011451075611
2.86881594,0.0112619400024414,-0.0184377431869507,0.0621430277824402,0.0657916223269777
2.87381594,0.00317859649658203,-0.00532615184783936,0.0399499833583832,0.0404286104080937
2.87881594,0.0161323547363281,-0.0176422595977783,0.0318782925605774,0.0398463013293818
2.88381594,0.00482463836669922,-0.00904345512390137,0.0238271653652191,0.0259382926440609
2.88881594,-0.000335693359375,-0.0173437595367432,0.0145935714244843,0.0226691643388419
2.89381594,0.00230598449707031,-0.00856971740722656,-0.0120671689510345,0.0149791250556654
2.89881594,0.00220203399658203,-0.00622117519378662,-0.0201801955699921,0.0212318691536336
2.90381594,0.00209999084472656,0.00367522239685059,-0.01852747797966,0.0190048588919001
2.90881594,-0.00324916839599609,-0.000345945358276367,-0.036433756351471,0.0365799859941854
2.91381594,-0.00358772277832031,-0.000399589538574219,-0.0415784418582916,0.0417348565817202
2.91881594,0.00244045257568359,0.00816750526428223,-0.0530861914157867,0.0537662316891354
2.92381594,-0.00871944427490234,0.0187559127807617,-0.0563958585262299,0.0600691753864925
2.92881594,-0.00856685638427734,0.00382030010223389,-0.0606078803539276,0.0613294454742252
2.93381594,-0.0211248397827148,0.00906646251678467,-0.0568887591362,0.0613578887712917
2.93881594,-0.0292158126831055,0.0185469388961792,-0.0605165064334869,0.0697122672423382
2.94381594,-0.0235967636108398,0.0131007432937622,-0.061301052570343,0.0669795175705743
2.94881594,-0.0400209426879883,0.00769197940826416,-0.0488107800483704,0.0635872208056209
2.95381594,-0.0396480560302734,0.0113126039505005,-0.0372938513755798,0.0555947363114928
2.95881594,-0.0315885543823242,0.0263452529907227,-0.018173485994339,0.0449687081902146
2.96381594,-0.0340995788574219,0.0242632627487183,-0.02283975481987,0.0476774747412093
2.96881594,-0.00872802734375,0.0137485265731812,0.00256150960922241,0.0164851986862414
2.97381594,0.00401496887207031,0.00802719593048096,0.023496001958847,0.0251518976938156
2.97881594,0.0206880569458008,0.00463712215423584,0.0349365770816803,0.0408664045427316
2.98381594,0.0372190475463867,0.00136172771453857,0.0490304529666901,0.0615718857982078
2.98881594,0.0496654510498047,0.00744736194610596,0.0634127557277679,0.0808906534583967
2.99381594,0.0698795318603516,0.00892138481140137,0.0682445168495178,0.0980818747781623
2.99881594,0.0273418426513672,0.00326812267303467,0.0566230118274689,0.0629636597871487
3.00381594,-0.000640869140625,-0.00397932529449463,0.0501859486103058,0.0503475439417958
3.00881594,-0.00662422180175781,-0.00548458099365234,0.0441133677959442,0.0449438556585332
3.01381594,0.00915431976318359,-0.0138781070709229,0.0449219942092896,0.0478997806877866
3.01881594,0.00803279876708984,-0.0119391679763794,0.058690756559372,0.0604290864858325
3.02381594,0.0117588043212891,-0.0199723243713379,0.0369871854782105,0.0436487698504763
3.02881594,0.00503444671630859,-0.0170540809631348,0.0244652628898621,0.0302446097595351
3.03381594,0.00790309906005859,-0.0195021629333496,0.0238980054855347,0.0318419220528325
3.03881594,-0.00737857818603516,-0.000201940536499023,0.0131368339061737,0.0150685301574543
3.04381594,-0.0140218734741211,0.00870931148529053,-0.00802487134933472,0.0183538443505835
3.04881594,-0.0167903900146484,-0.0037543773651123,-0.0194573998451233,0.0259731198545088
3.05381594,-0.0166959762573242,0.00399386882781982,-0.0422442257404327,0.045599136173919
3.05881594,-0.0155982971191406,0.00499081611633301,-0.0382276475429535,0.0415880770797631
3.06381594,-0.0117568969726563,0.010591983795166,-0.0372613072395325,0.0404823389188613
3.06881594,-0.00905418395996094,0.013545036315918,-0.0402922928333283,0.0434616511162085
3.07381594,-0.0239953994750977,0.00667655467987061,-0.0420984327793121,0.0489145542843547
3.07881594,-0.0134353637695313,-0.00439262390136719,-0.0419963002204895,0.0443113233448064
3.08381594,-0.0166015625,0.0178288221359253,-0.0373623371124268,0.0446029484529721
3.08881594,-0.0242338180541992,0.00880420207977295,-0.0286271572113037,0.0385266925876879
3.09381594,-0.0146255493164063,0.00874769687652588,-0.0182406902313232,0.0249630061003338
3.09881594,-0.00868988037109375,0.00324833393096924,-0.0244514644145966,0.0261522428523691
3.10381594,0.00350284576416016,0.0132856369018555,-0.0144996643066406,0.0199754434579237
3.10881594,0.0170555114746094,0.0267250537872314,-0.00723287463188171,0.0325182017804101
3.11381594,0.00353908538818359,0.0222034454345703,0.00582242012023926,0.0232253889226287
3.11881594,0.00355720520019531,0.0177334547042847,0.00221681594848633,0.0182220579939445
3.12381594,0.00558280944824219,0.0176498889923096,0.0271412134170532,0.0328531856678506
3.12881594,-0.00860595703125,0.0062941312789917,0.0343009531497955,0.0359198270035557
3.13381594,-0.00919055938720703,0.00212597846984863,0.0460549294948578,0.0470110912134611
3.13881594,-0.00131511688232422,-0.00125539302825928,0.0409419536590576,0.0409823024425178
3.14381594,0.0142383575439453,-0.00687766075134277,0.0497617721557617,0.0522136668990191
3.14881594,0.0213117599487305,-0.0111277103424072,0.0521722137928009,0.0574452516890522
3.15381594,0.0134639739990234,-0.00897252559661865,0.0482921004295349,0.0509304601915655
3.15881594,0.0139122009277344,-0.0150430202484131,0.0421981513500214,0.0469097619926506
3.16381594,0.00998973846435547,-0.0203573703765869,0.0347098708152771,0.0414607348614202
3.16881594,-0.00121879577636719,-0.0202039480209351,0.0292450487613678,0.0355662460182673
3.17381594,0.00189781188964844,-0.0230275392532349,0.0055384635925293,0.0237601311653268
3.17881594,-0.00223827362060547,-0.014670729637146,0.00322407484054565,0.0151866663710102
3.18381594,0.00334739685058594,-0.0180168151855469,-0.00506782531738281,0.0190129836836035
3.18881594,0.00425148010253906,-0.0103399753570557,-0.0159677565097809,0.0194925478427643
3.19381594,0.00381565093994141,0.00120365619659424,-0.0280837118625641,0.0283672848950089
3.19881594,-0.001800537109375,-0.00997674465179443,-0.0244450569152832,0.0264639032518028
3.20381594,-0.00191879272460938,-0.0054936408996582,-0.0419524610042572,0.0423541124351359
3.20881594,-0.00191307067871094,0.000619292259216309,-0.0341721475124359,0.0342312580536525
3.21381594,-0.0088348388671875,0.0136626958847046,-0.0247679948806763,0.0296340548534333
3.21881594,-0.00670909881591797,0.016741156578064,-0.0281712114810944,0.0334498951688275
3.22381594,-0.0135440826416016,0.00652039051055908,-0.0272181928157806,0.0310932096633611
3.22881594,0.00305271148681641,0.00402605533599854,-0.0262803137302399,0.0267615967152578
3.23381594,-0.00480461120605469,0.00564777851104736,-0.0113101303577423,0.0135240799931204
3.23881594,-0.0000457763671875,0.01837158203125,-0.00925689935684204,0.020572003001882
3.24381594,-0.00389003753662109,0.0156534910202026,-0.010440319776535,0.0192136527030181
3.24881594,-0.0143623352050781,0.0167824029922485,-0.00857764482498169,0.0236960273776174
3.25381594,-0.0162992477416992,0.00665092468261719,-0.00510457158088684,0.0183291278325929
3.25881594,-0.0104961395263672,0.0177750587463379,-0.00471401214599609,0.0211741249855886
3.26381594,-0.00106239318847656,0.00743746757507324,0.00867322087287903,0.011474727165686
3.26881594,0.00238704681396484,-0.00152432918548584,0.0130821168422699,0.0133851915575604
3.27381594,0.00597572326660156,-0.0105786323547363,0.0215244293212891,0.0247167511753233
3.27881594,0.00703907012939453,-0.0137432813644409,0.0208438038825989,0.0259401320591274
3.28381594,0.00430774688720703,-0.0191166400909424,0.0161688327789307,0.0254053885040928
3.28881594,0.0171613693237305,-0.0193339586257935,0.0163713395595551,0.0305995966016486
3.29381594,0.00078582763671875,-0.0155936479568481,0.0469000637531281,0.0494307127373683
3.29881594,0.0100870132446289,-0.0156253576278687,0.0372103154659271,0.0415993655512909
3.30381594,0.0181608200073242,-0.0174744129180908,0.020268052816391,0.0323413737361044
3.30881594,0.0188541412353516,-0.0169321298599243,0.0172494351863861,0.0306548312271534
3.31381594,-0.00377178192138672,-0.0183947086334229,0.0144771933555603,0.023710351579538
3.31881594,0.00226211547851563,-0.0188465118408203,0.0136256515979767,0.0233659272547392
3.32381594,-0.00897312164306641,-0.0176774263381958,0.00612363219261169,0.0207486670702962
3.32881594,-0.00162506103515625,-0.0101538896560669,0.00826337933540344,0.0131918814638526
3.33381594,-0.00976943969726563,-0.00716948509216309,-0.0104358792304993,0.0159922182263382
3.33881594,-0.00879383087158203,-0.00570774078369141,-0.0185270607471466,0.0212875960639116
3.34381594,-0.0106172561645508,-0.0218055248260498,-0.0253327190876007,0.0350706957127237
3.34881594,-0.00186538696289063,0.000785946846008301,-0.0398114323616028,0.0398628589999331
3.35381594,-0.00742149353027344,0.00750100612640381,-0.0379244983196259,0.039365101700917
3.35881594,-0.006927490234375,0.0125120878219605,-0.0337018072605133,0.0366108491466205
3.36381594,-0.00139045715332031,0.00967824459075928,-0.0275684893131256,0.0292510408782611
3.36881594,0.00223827362060547,0.0169116258621216,-0.0196503102779388,0.0260220608738114
3.37381594,-0.00549411773681641,0.0146867036819458,-0.0227082371711731,0.0275961705707428
3.37881594,-0.0145988464355469,0.000571489334106445,-0.0133693218231201,0.019803830016384
3.38381594,-0.00464439392089844,0.00492680072784424,-0.0134284198284149,0.0150388237369992
3.38881594,-0.00533580780029297,0.0112854242324829,-0.0114535689353943,0.0169415432103043
3.39381594,-0.01055908203125,0.0162860155105591,-0.0148223340511322,0.0244219184601904
3.39881594,-0.00672721862792969,0.0106695890426636,-0.0150653123855591,0.0196483902160399
3.40381594,0.0124835968017578,0.00510013103485107,-0.00535100698471069,0.014508094341847
3.40881594,-0.000353813171386719,0.000144720077514648,0.000461965799331665,0.000599616594862682
3.41381594,0.00383663177490234,0.00155413150787354,0.00819456577301025,0.00918073942164501
3.41881594,0.00162315368652344,-0.00833284854888916,0.00982397794723511,0.0129838952374301
3.42381594,0.00509548187255859,-0.0205608606338501,0.0209014117717743,0.0297587287962951
3.42881594,0.019989013671875,-0.0110560655593872,0.0331771373748779,0.0402805126285577
3.43381594,0.0272397994995117,-0.0184332132339478,0.0344398021697998,0.0476223686978791
3.43881594,0.0169639587402344,-0.0131365060806274,0.0379613637924194,0.0436051468192362
3.44381594,0.0112638473510742,-0.0105439424514771,0.0275115072727203,0.0315425428902824
3.44881594,0.00790691375732422,-0.0160897970199585,0.0165883302688599,0.0244248552588956
3.45381594,0.0109395980834961,-0.0153185129165649,0.0221690237522125,0.0290825937345616
3.45881594,0.00463294982910156,-0.0136255025863647,0.0239332020282745,0.0279269888132647
3.46381594,-0.0065460205078125,-0.0372560024261475,0.0147373080253601,0.0405961617533007
3.46881594,-0.00735664367675781,-0.0253150463104248,0.00559481978416443,0.0269494672359772
3.47381594,-0.0128774642944336,-0.00848066806793213,-0.000264853239059448,0.0154214449637865
3.47881594,-0.00875377655029297,-0.00140058994293213,-0.0170758664608002,0.0192399446846342
3.48381594,-0.0145072937011719,-0.0101692676544189,-0.0113876760005951,0.021060739299792
3.48881594,-0.0125417709350586,0.00283539295196533,-0.0140438079833984,0.0190411137818695
3.49381594,-0.00610160827636719,-0.00360739231109619,0.00837758183479309,0.0109739136247304
3.49881594,0.00238513946533203,0.00579941272735596,-0.0230325162410736,0.0238708793856997
3.50381594,-0.00657939910888672,0.012592077255249,-0.0237407982349396,0.027667208082282
3.50881594,-0.0131816864013672,0.0197931528091431,-0.0225146114826202,0.032748030241885
3.51381594,-0.0108213424682617,0.0119208097457886,-0.00661948323249817,0.0174076051217856
3.51881594,0.00162696838378906,-0.00599253177642822,-0.0119471251964569,0.0134644444249723
3.52381594,-0.0105457305908203,0.00597870349884033,-0.0225921869277954,0.0256391154176906
3.52881594,-0.00587177276611328,0.0105253458023071,-0.0191268026828766,0.022607414724924
3.53381594,-0.0040130615234375,0.00508534908294678,-0.0212903618812561,0.0222540995576358
3.53881594,0.00158786773681641,0.00916337966918945,-0.0107353925704956,0.014203432843999
3.54381594,0.000331878662109375,0.0164220333099365,-0.014831155538559,0.0221304427449601
3.54881594,0.00322723388671875,0.0149668455123901,-0.0149033069610596,0.0213665641020475
3.55381594,0.00793743133544922,0.0148510932922363,-0.00928238034248352,0.0192281141301533
3.55881594,-0.00213813781738281,0.0103780031204224,0.0015941858291626,0.0107152233085233
3.56381594,-0.00198841094970703,-0.00436496734619141,0.0124783217906952,0.0133684416724752
3.56881594,0.0118379592895508,-0.00706064701080322,0.0179321467876434,0.0226175132312511
3.57381594,0.0178794860839844,-0.0090789794921875,0.00711491703987122,0.0212773573483927
3.57881594,0.00478744506835938,-0.00902938842773438,0.0118778347969055,0.0156694749472993
3.58381594,0.00421524047851563,-0.017662525177002,0.026768833398819,0.03234661480671
3.58881594,0.0117387771606445,-0.0111134052276611,0.0277136266231537,0.0320835123636588
3.59381594,0.00807952880859375,-0.0220924615859985,0.0251301825046539,0.0344221108797083
3.59881594,0.00520610809326172,-0.0246248245239258,0.0140181183815002,0.0288096023448887
3.60381594,0.00320148468017578,-0.0152801275253296,0.00863152742385864,0.0178391442344233
3.60881594,0.00757312774658203,-0.0128957033157349,0.0209622085094452,0.0257500604555982
3.61381594,0.0125694274902344,-0.0085378885269165,0.0235470533370972,0.0280240926488336
3.61881594,0.00988006591796875,-0.00890517234802246,-0.00236037373542786,0.0135088549204694
3.62381594,-0.00550651550292969,0.00153374671936035,0.0104271471500397,0.0118911517386557
3.62881594,-0.0131950378417969,0.00439918041229248,-0.0157051980495453,0.0209789193649671
3.63381594,-0.00754642486572266,0.017303466796875,-0.0189369916915894,0.0267388882673135
3.63881594,-0.0200023651123047,0.0202478170394897,-0.0143682062625885,0.0318828175692626
3.64381594,-0.0235586166381836,0.0230648517608643,-0.00820603966712952,0.0339755042887379
3.64881594,-0.0108585357666016,0.0131242275238037,-0.00106945633888245,0.0170674217136599
3.65381594,-0.00857067108154297,0.0176103115081787,-0.0065700113773346,0.0206577957125487
3.65881594,-0.0119314193725586,0.00899267196655273,-0.0180962383747101,0.0234670143106493
3.66381594,-0.0191202163696289,0.0169209241867065,-0.00806766748428345,0.0267766242829573
3.66881594,-0.0106563568115234,0.0242921113967896,-0.018246203660965,0.032196095487589
3.67381594,-0.00690746307373047,0.0209183692932129,-0.0193730890750885,0.029336117676228
3.67881594,0.0105504989624023,0.0048905611038208,-0.000985056161880493,0.0116705163513838
3.68381594,-0.000624656677246094,0.000943899154663086,-0.00974416732788086,0.00980968595278884
3.68881594,0.00688076019287109,0.00481939315795898,0.00423821806907654,0.00940924564690646
3.69381594,0.00170803070068359,0.00295686721801758,0.0205590426921844,0.0208406974220761
3.69881594,0.0133285522460938,0.00514161586761475,-0.00562211871147156,0.0153523528331275
3.70381594,0.0133275985717773,-0.00589609146118164,0.0169101059436798,0.0223235405174792
3.70881594,0.0132236480712891,-0.0201349258422852,0.0141733288764954,0.027949299784233
3.71381594,0.0107297897338867,-0.0254464149475098,0.0218305289745331,0.0352025626442479
3.71881594,0.00828838348388672,-0.01819908618927,0.0261925160884857,0.0329537848804356
3.72381594,0.000210762023925781,-0.00606894493103027,0.0298149585723877,0.0304270975921103
3.72881594,-0.00100135803222656,-0.00411534309387207,0.0253371894359589,0.0256887511413586
3.73381594,0.0150852203369141,-0.0228837728500366,0.0131158232688904,0.0303851238682038
3.73881594,0.01007080078125,-0.0193825960159302,0.00477203726768494,0.0223579604699658
3.74381594,0.017247200012207,-0.0181413888931274,0.0159259140491486,0.0296683440308628
3.74881594,-0.00391101837158203,-0.0192875862121582,0.00391760468482971,0.0200662570765175
3.75381594,-0.0152378082275391,-0.0218688249588013,0.0131735503673553,0.0297317798649727
3.75881594,-0.00153350830078125,-0.0169974565505981,-0.00770658254623413,0.0187258268559751
3.76381594,-0.00251674652099609,-0.000577449798583984,0.00108596682548523,0.00280121139275227
3.76881594,-0.00628280639648438,-0.00816822052001953,0.00393146276473999,0.0110295005394583
3.77381594,0.00411415100097656,-0.000358939170837402,-0.0191644728183746,0.0196043896664349
3.77881594,-0.000902175903320313,0.00947809219360352,-0.0208962261676788,0.0229630229073126
3.78381594,0.00210857391357422,0.0107221603393555,-0.0120459794998169,0.0162639610305074
3.78881594,-0.00632476806640625,0.0154035091400146,-0.0185560882091522,0.0249318911145181
3.79381594,-0.00949954986572266,0.0163733959197998,0.00432193279266357,0.019416710449048
3.79881594,-0.0147886276245117,0.0180469751358032,-0.0103285610675812,0.025516190787332
3.80381594,-0.0114545822143555,0.00967323780059815,-0.0155541300773621,0.0216034706868098
3.80881594,-0.0119714736938477,0.0124944448471069,-0.00558716058731079,0.0181836106939266
3.81381594,-0.00630283355712891,0.0106555223464966,0.00792673230171204,0.0147003044971376
3.81881594,-0.00615596771240234,0.00581979751586914,0.00186657905578613,0.00867468149117627
3.82381594,-0.00693607330322266,0.0102483034133911,-0.0168440043926239,0.0209011320195662
3.82881594,0.0058441162109375,0.0142247676849365,-0.00435873866081238,0.0159842520216186
3.83381594,0.0113744735717773,0.00855255126953125,0.00362658500671387,0.0146859422940424
3.83881594,0.0204563140869141,0.0115219354629517,0.00350502133369446,0.0237381751064515
3.84381594,0.0226030349731445,0.00608348846435547,0.032758355140686,0.0402618411578066
3.84881594,0.0134105682373047,0.00583863258361816,0.0235902965068817,0.0277567119842479
3.85381594,0.0137748718261719,0.0100950002670288,0.0191138386726379,0.0256319127850889
3.85881594,-0.00090789794921875,0.0058434009552002,0.0346934795379639,0.0351938508245481
3.86381594,0.00532436370849609,-0.00249302387237549,0.04094198346138,0.0413619393486391
3.86881594,0.00899696350097656,-0.00446450710296631,0.0331950187683106,0.0346812117282374
3.87381594,0.00785446166992188,-0.0135707855224609,0.0412496030330658,0.0441292254430827
3.87881594,0.00245761871337891,-0.0266119241714478,0.0269364714622498,0.0379448006014504
3.88381594,-0.00314044952392578,-0.00985658168792725,0.0241373777389526,0.026260762172793
3.88881594,-0.00869655609130859,0.000216841697692871,0.0167436599731445,0.0188686845717294
3.89381594,-0.00823211669921875,-0.00289690494537354,0.0131835043430328,0.0158102685105235
3.89881594,-0.0140285491943359,-0.00469541549682617,-0.0115199089050293,0.0187498112088072
3.90381594,-0.0204477310180664,-0.000116944313049316,-0.0184373259544373,0.0275328597880735
3.90881594,-0.0137119293212891,-0.0163619518280029,-0.031865656375885,0.0383555801624731
3.91381594,-0.00138664245605469,0.00450003147125244,-0.0339425206184387,0.0342675906138195
3.91881594,-0.0036773681640625,0.0120402574539185,-0.0350503325462341,0.03724267240374
3.92381594,-0.0153903961181641,0.000296115875244141,-0.0354690551757813,0.0386653055380167
3.92881594,-0.00855445861816406,-0.00848329067230225,-0.0341975688934326,0.0362576709277047
3.93381594,-0.0200510025024414,0.00963699817657471,-0.0374077558517456,0.0435230356601194
3.93881594,0.00371932983398438,0.00982403755187988,-0.0251051187515259,0.0272141896032737
3.94381594,0.000552177429199219,0.0114479064941406,-0.0175300538539886,0.0209442653520157
3.94881594,-0.00102519989013672,0.0169976949691772,-0.0150250494480133,0.022709574632634
3.95381594,-0.00264739990234375,0.0161038637161255,-0.00643005967140198,0.0175410609772688
3.95881594,-0.0057220458984375,0.0184780359268188,-0.00818181037902832,0.0210028960397134
3.96381594,-0.0102243423461914,0.0144556760787964,0.0104834735393524,0.020576855074513
3.96881594,0.00568771362304688,0.0182271003723145,0.00987011194229126,0.0214941011441181
3.97381594,0.00674629211425781,0.0142649412155151,0.0158819556236267,0.0223883344535463
3.97881594,-0.00805187225341797,0.0116952657699585,0.0249241888523102,0.0286849625790404
3.98381594,-0.00693798065185547,0.0158734321594238,0.0152320265769959,0.0230676409215953
3.98881594,-0.00949668884277344,0.00222945213317871,0.0198043882846832,0.0220764886501701
3.99381594,-0.000262260437011719,0.00421214103698731,0.025443971157074,0.0257915990371731
3.99881594,0.00603008270263672,0.00118887424468994,0.0323236286640167,0.0329027702386831
4.00381594,-0.0000438690185546875,-0.0137982368469238,0.0377975106239319,0.0402373591819945
4.00881594,0.0114526748657227,-0.0171372890472412,0.0284067094326019,0.0350968884412411
4.01381594,0.0135297775268555,-0.0181968212127686,0.0179264545440674,0.0289056561021573
4.01881594,0.00922298431396484,-0.0151674747467041,0.0137658715248108,0.0224636361412204
4.02381594,0.0130863189697266,-0.0281339883804321,-0.00539469718933106,0.0314940598229617
4.02881594,0.0106058120727539,-0.0178223848342896,-0.0116128623485565,0.0237692915929484
4.03381594,0.0141153335571289,-0.0158630609512329,-0.0127694308757782,0.0247777664260283
4.03881594,0.00286293029785156,-0.0186282396316528,-0.00348025560379028,0.0191655905396195
4.04381594,0.002166748046875,-0.00803709030151367,-0.00288078188896179,0.00880843470232322
4.04881594,-0.00091552734375,-0.0214023590087891,0.00199088454246521,0.0215142460411625
4.05381594,-0.00173854827880859,-0.00917768478393555,-0.00521379709243774,0.0106974823314714
4.05881594,-0.00846385955810547,-0.0123816728591919,0.00345480442047119,0.0153908549143668
4.06381594,-0.00768947601318359,-0.00283932685852051,-0.0130918323993683,0.0154462258801298
4.06881594,-0.00765705108642578,0.00547266006469727,-0.00455361604690552,0.0104554224508865
4.07381594,-0.0190505981445313,0.0125646591186523,-0.0139816403388977,0.0267634492358261
4.07881594,-0.0200490951538086,0.0191441774368286,-0.0239139497280121,0.0366106915779139
4.08381594,0.00677585601806641,0.00128769874572754,0.00298506021499634,0.0075153827131071
4.08881594,-0.0116891860961914,0.013670802116394,-0.00711709260940552,0.0193437563391357
4.09381594,-0.0109090805053711,0.0116331577301025,-0.015015184879303,0.0219042044641151
4.09881594,-0.00832557678222656,0.00996410846710205,-0.0205792784690857,0.0243332157473914
4.10381594,-0.00272369384765625,0.0119173526763916,-0.0208121836185455,0.0241368761433893
4.10881594,0.00393581390380859,0.0187637805938721,-0.00749778747558594,0.0205860853561195
4.11381594,0.00417804718017578,0.0158668756484985,0.00140666961669922,0.0164679245958692
4.11881594,0.00280666351318359,-0.00381839275360107,-0.00589102506637573,0.0075605330254987
4.12381594,0.00159168243408203,0.0141772031784058,-0.000494390726089478,0.0142748367809515
4.12881594,-0.00178909301757813,0.0133193731307983,0.00789648294448853,0.0155872062062314
4.13381594,-0.00151252746582031,0.00217211246490479,0.00750702619552612,0.00795997827857407
4.13881594,-0.00052642822265625,0.00489616394042969,0.0292892456054688,0.0297003275426828
4.14381594,0.00832080841064453,-0.0105234384536743,0.0316594541072845,0.0343845843928087
4.14881594,0.00709152221679688,-0.0142337083816528,0.0421264171600342,0.0450280264322842
4.15381594,0.0135965347290039,-0.0111145973205566,0.0406871438026428,0.044315276159041
4.15881594,0.0134830474853516,-0.0184762477874756,0.0335047245025635,0.0405676085786323
4.16381594,0.00560188293457031,-0.0144622325897217,0.0358632504940033,0.0390731365504161
4.16881594,-0.000859260559082031,-0.0135147571563721,0.0231372714042664,0.0268089596541676
4.17381594,0.00383472442626953,-0.0070117712020874,0.0140111744403839,0.016130190823878
4.17881594,0.00222492218017578,-0.0198967456817627,0.00853833556175232,0.0217654299658349
4.18381594,0.00848579406738281,-0.0135008096694946,-0.0105263590812683,0.0191071923158205
4.18881594,0.00835895538330078,-0.0135239362716675,-0.0134450495243073,0.0208215836115126
4.19381594,0.0155172348022461,-0.0135493278503418,-0.0186540186405182,0.0277910286341633
4.19881594,0.00345325469970703,0.000673770904541016,-0.0283533930778503,0.0285708563798838
4.20381594,0.00724411010742188,0.00146472454071045,-0.0145279467105865,0.0162998093502425
4.20881594,0.00327587127685547,0.00531959533691406,-0.019618034362793,0.0205887517696137
4.21381594,-0.00417518615722656,0.0077584981918335,-0.0222066044807434,0.0238905788168548
4.21881594,-0.00442028045654297,0.0100014209747314,-0.0282931327819824,0.0303326336384954
4.22381594,-0.00145244598388672,0.0140895843505859,-0.0102463960647583,0.017481836826383
4.22881594,-0.00217819213867188,0.0148656368255615,-0.00171473622322083,0.0151219046266563
4.23381594,-0.0213327407836914,0.0203589200973511,-0.00266969203948975,0.0296090984742901
4.23881594,-0.013035774230957,0.0222759246826172,-0.0112422406673431,0.0281520195632317
4.24381594,-0.0222797393798828,0.0191901922225952,-0.00533214211463928,0.0298844776415176
4.24881594,-0.0131511688232422,0.0156861543655396,-0.000446021556854248,0.0204745602010429
4.25381594,-0.0186529159545898,0.014272928237915,0.0158704817295074,0.0283464273660773
4.25881594,-0.128201484680176,0.0241957902908325,-0.0167025327682495,0.131529584287619
4.26381594,-0.221534729003906,0.0328633785247803,-0.0159453749656677,0.224525928983031
4.26881594,-0.301100730895996,0.035774827003479,-0.0163934826850891,0.303661381587745
4.27381594,-0.354220390319824,0.0428236722946167,-0.0227358639240265,0.35752324586731
4.27881594,-0.37218189239502,0.0359466075897217,-0.0303728878498077,0.37514534775242
4.28381594,-0.335012435913086,0.0310049057006836,-0.0291940867900848,0.33770835212863
4.28881594,-0.277490615844727,0.0193806886672974,-0.0245036482810974,0.27924376761924
4.29381594,-0.224699020385742,0.0249830484390259,-0.0248721837997437,0.227447637927034
4.29881594,-0.278603553771973,0.033865213394165,-0.0151508450508118,0.281062877232762
4.30381594,-0.479043006896973,0.0463173389434814,0.00442168116569519,0.481297257012784
4.30881594,-0.810115814208984,0.0874598026275635,0.0120772123336792,0.814912699965396
4.31381594,-1.15386199951172,0.131908774375916,-0.0174262821674347,1.16150812049883
4.31881594,-1.36830902099609,0.165385961532593,-0.0206171274185181,1.3784219815261
4.32381594,-1.65842151641846,0.208508014678955,-0.021594911813736,1.6716171387376
4.32881594,-1.82093811035156,0.230764031410217,-0.00500380992889404,1.83550883354922
4.33381594,-1.95162963867188,0.260592222213745,-0.0169324576854706,1.96902342823647
4.33881594,-2.05684089660645,0.292139410972595,-0.0438927710056305,2.07794766169477
4.34381594,-2.10377597808838,0.309132099151611,-0.0695665180683136,2.12750452905364
4.34881594,-1.98928260803223,0.291940212249756,-0.0761053562164307,2.01203041910225
4.35381594,-1.9132137298584,0.285480260848999,-0.0758733153343201,1.9358828775091
4.35881594,-1.85095977783203,0.296644330024719,-0.092431366443634,1.87685735078361
4.36381594,-1.74743556976318,0.295831799507141,-0.106382697820663,1.77549001756383
4.36881594,-1.5264835357666,0.268343925476074,-0.0931210815906525,1.55268541023062
4.37381594,-1.21773815155029,0.223015546798706,-0.0795028507709503,1.24054135083671
4.37881594,-0.920648574829102,0.201925039291382,-0.0341756343841553,0.943151893288266
4.38381594,-0.613665580749512,0.145653247833252,0.0129279494285584,0.6308466101022
4.38881594,-0.272332191467285,0.103048324584961,0.0365641713142395,0.293463316843926
4.39381594,0.0477781295776367,0.0679702758789063,0.0684265196323395,0.107633157799941
4.39881594,0.35422420501709,0.0221841335296631,0.0853669047355652,0.365040315067504
4.40381594,0.697335243225098,-0.032160758972168,0.129449427127838,0.709977401080624
4.40881594,1.05540084838867,-0.0736185312271118,0.148474007844925,1.06833289284057
4.41381594,1.42580699920654,-0.136877536773682,0.135069876909256,1.43871641775156
4.41881594,1.72889232635498,-0.190078496932983,0.130831152200699,1.74422340928896
4.42381594,1.9345760345459,-0.221330881118774,0.127180486917496,1.951344835909
4.42881594,2.0283989906311,-0.234501481056213,0.111290812492371,2.04493986580438
4.43381594,2.13247537612915,-0.255877137184143,0.106917887926102,2.15043153201614
4.43881594,2.15999269485474,-0.268038392066956,0.0754132866859436,2.17786597045283
4.44381594,2.19714784622192,-0.255518198013306,0.0831976532936096,2.21351983437853
4.44881594,2.09976243972778,-0.239614486694336,0.0663541853427887,2.11443143266408
4.45381594,1.97489070892334,-0.225354433059692,0.0561628341674805,1.98849998658112
4.45881594,1.81950044631958,-0.208247184753418,0.0669370889663696,1.83260179471542
4.46381594,1.68508243560791,-0.177004098892212,0.0757958590984345,1.69604784073899
4.46881594,1.4832706451416,-0.143911600112915,0.0634882748126984,1.49158744846708
4.47381594,1.32864189147949,-0.126172184944153,0.0732830464839935,1.33662975462533
4.47881594,1.1885461807251,-0.102743983268738,0.0696477890014648,1.19501011055427
4.48381594,1.09110736846924,-0.0771944522857666,0.06952765583992,1.09604213783876
4.48881594,1.04212093353271,-0.0729967355728149,0.0702678561210632,1.0470349254515
4.49381594,1.01193523406982,-0.0824433565139771,0.0736927390098572,1.01795896025725
4.49881594,1.05147266387939,-0.0939062833786011,0.0627344250679016,1.05752009958781
4.50381594,1.03982734680176,-0.0881273746490479,0.0684781968593597,1.04579950696318
4.50881594,1.02758312225342,-0.0780448913574219,0.0711472928524017,1.03299565124317
4.51381594,1.00244998931885,-0.083924412727356,0.0925402045249939,1.0102044236641
4.51881594,1.03143978118896,-0.102941632270813,0.0776867568492889,1.03947113190482
4.52381594,1.01784515380859,-0.119665145874023,0.0702155530452728,1.02725786838464
4.52881594,0.959606170654297,-0.0995551347732544,0.0706652700901032,0.967341102204611
4.53381594,0.850594520568848,-0.0794628858566284,0.0678306519985199,0.856986806200046
4.53881594,0.726899147033691,-0.0568561553955078,0.0718442499637604,0.732650386349125
4.54381594,0.624325752258301,-0.0498706102371216,0.0859050750732422,0.632178301289799
4.54881594,0.561789512634277,-0.035833477973938,0.0641091465950012,0.566569922716258
4.55381594,0.511196136474609,-0.0318180322647095,0.0909374356269836,0.520195630818039
4.55881594,0.462371826171875,-0.0131900310516357,0.110475599765778,0.47556970120085
4.56381594,0.393305778503418,-0.00709688663482666,0.113912612199783,0.4095312984648
4.56881594,0.350314140319824,0.000697016716003418,0.115409433841705,0.368835763124975
4.57381594,0.396452903747559,-0.01201331615448,0.124545365571976,0.415729206022809
4.57881594,0.515602111816406,-0.0316295623779297,0.149937033653259,0.537891328231359
4.58381594,0.673810005187988,-0.062463641166687,0.155631989240646,0.694365138550488
4.58881594,0.783040046691895,-0.0922541618347168,0.17961710691452,0.808656200245452
4.59381594,0.870383262634277,-0.114158987998962,0.192754000425339,0.898751023974275
4.59881594,0.92633056640625,-0.121218085289001,0.21564644575119,0.958793790147171
4.60381594,0.950760841369629,-0.133731484413147,0.222758233547211,0.985622401337501
4.60881594,0.963762283325195,-0.12174129486084,0.226697206497192,0.997522082496532
4.61381594,0.932682991027832,-0.134585499763489,0.252302914857864,0.97553450956129
4.61881594,0.787347793579102,-0.10753071308136,0.239218086004257,0.829882338034257
4.62381594,0.569418907165527,-0.0682107210159302,0.228194892406464,0.617222409848747
4.62881594,0.333237648010254,-0.0273566246032715,0.217849642038345,0.399066637915681
4.63381594,0.104670524597168,0.0135141611099243,0.20052969455719,0.226606949737097
4.63881594,-0.10195255279541,0.0441486835479736,0.199833750724792,0.228641547425787
4.64381594,-0.318662643432617,0.0789601802825928,0.171231091022491,0.370271085722982
4.64881594,-0.52259635925293,0.11386501789093,0.150256127119064,0.555561968407251
4.65381594,-0.696566581726074,0.145984292030334,0.129878580570221,0.723453427656598
4.65881594,-0.806543350219727,0.154995203018188,0.107750236988068,0.828339183132909
4.66381594,-0.853865623474121,0.160607695579529,0.0936051905155182,0.873866847134998
4.66881594,-0.852988243103027,0.141491651535034,0.0876436531543732,0.869074358305631
4.67381594,-0.813806533813477,0.138724327087402,0.0749958753585815,0.828945049278996
4.67881594,-0.754194259643555,0.129631519317627,0.0602923035621643,0.767625217113611
4.68381594,-0.687667846679688,0.112185955047607,0.0484743118286133,0.698442921629448
4.68881594,-0.631898880004883,0.0992890596389771,0.0406258106231689,0.640940690239126
4.69381594,-0.58869743347168,0.0863978862762451,0.0120118260383606,0.59512481623095
4.69881594,-0.588713645935059,0.087270975112915,-0.016244500875473,0.595368678900731
4.70381594,-0.692326545715332,0.097359299659729,-0.053153395652771,0.701156303973498
4.70881594,-0.836456298828125,0.0971657037734985,-0.0960104465484619,0.847536618492369
4.71381594,-1.02895832061768,0.130460500717163,-0.123471528291702,1.04451921289865
4.71881594,-1.24684047698975,0.164971828460693,-0.120698750019073,1.2634852858272
4.72381594,-1.42725563049316,0.197508096694946,-0.113341093063354,1.44530767880452
4.72881594,-1.58792495727539,0.246055483818054,-0.123559415340424,1.61161903071857
4.73381594,-1.64259147644043,0.253500580787659,-0.122708261013031,1.66656131608029
4.73881594,-1.65338039398193,0.259561896324158,-0.119819849729538,1.6779141520401
4.74381594,-1.59357833862305,0.260638356208801,-0.113011509180069,1.61870191056382
4.74881594,-1.4476900100708,0.250365018844605,-0.0943610072135925,1.47220684946179
4.75381594,-1.20219898223877,0.211075067520142,-0.0546419322490692,1.22181046721023
4.75881594,-0.867915153503418,0.143073320388794,-0.0391789674758911,0.880500812140689
4.76381594,-0.439986228942871,0.0729435682296753,-0.0146574974060059,0.446232549278572
4.76881594,0.0188913345336914,0.006217360496521,0.0258063971996307,0.0325807953928791
4.77381594,0.447685241699219,-0.0656217336654663,0.0605957806110382,0.456508637587955
4.77881594,0.831905364990234,-0.13070285320282,0.0678512454032898,0.844839371500684
4.78381594,1.15102958679199,-0.183565139770508,0.0838524401187897,1.16858739592869
4.78881594,1.41152954101563,-0.223435282707214,0.0935801863670349,1.43216487249154
4.79381594,1.56157493591309,-0.264234185218811,0.104360610246658,1.58720733430805
4.79881594,1.60004806518555,-0.244269013404846,0.0872725248336792,1.62093727682617
4.80381594,1.49038791656494,-0.223820328712463,0.0946496427059174,1.51006961304839
4.80881594,1.29340744018555,-0.194831848144531,0.0889202356338501,1.3110183307963
4.81381594,1.04695606231689,-0.14682948589325,0.0715302526950836,1.05961902181888
4.81881594,0.813922882080078,-0.106490135192871,0.0673817098140717,0.823620605427283
4.82381594,0.569708824157715,-0.0599380731582642,0.0328202843666077,0.573792547880326
4.82881594,0.353485107421875,-0.0274657011032105,0.0371842086315155,0.356495092922325
4.83381594,0.221606254577637,0.00513541698455811,0.0381483435630798,0.224924433292918
4.83881594,0.14809513092041,0.00541591644287109,0.0306893587112427,0.151338483841212
4.84381594,0.190051078796387,0.0036461353302002,0.0410855412483215,0.194475521735215
4.84881594,0.328145980834961,-0.0225110054016113,0.0630659461021423,0.334908709441974
4.85381594,0.455158233642578,-0.0501469373703003,0.0552284717559814,0.461230871768959
4.85881594,0.615122795104981,-0.074752688407898,0.0668744444847107,0.623246507256247
4.86381594,0.759586334228516,-0.093826174736023,0.0734391212463379,0.768874537711936
4.86881594,0.887545585632324,-0.122721076011658,0.0677443146705627,0.898547116874273
4.87381594,0.971658706665039,-0.138299345970154,0.0810911059379578,0.984795978259451
4.87881594,0.968642234802246,-0.138424277305603,0.0672103762626648,0.980788608349239
4.88381594,0.928668975830078,-0.134114027023315,0.067354142665863,0.940717396165262
4.88881594,0.794721603393555,-0.111576080322266,0.0717137455940247,0.805713664962701
4.89381594,0.603143692016602,-0.0806044340133667,0.0562680959701538,0.611101862725142
4.89881594,0.383273124694824,-0.0361368656158447,0.0359529852867126,0.386648132442016
4.90381594,0.178230285644531,-0.00299477577209473,0.0249314904212952,0.179990507020463
4.90881594,0.0272550582885742,0.0431004762649536,0.0138493776321411,0.052842166092781
4.91381594,-0.0600605010986328,0.0520678758621216,0.00284403562545776,0.0795387705942897
4.91881594,-0.106576919555664,0.0624873638153076,-0.0124180316925049,0.124167298149219
4.92381594,-0.073430061340332,0.0496679544448853,0.000930070877075195,0.0886552008571438
4.92881594,0.0277061462402344,0.0142951011657715,-0.0164383053779602,0.0352448342388494
4.93381594,0.189903259277344,-0.00416958332061768,-0.0255073308944702,0.191654003972225
4.93881594,0.383655548095703,-0.0479468107223511,-0.0305958986282349,0.387848662826016
4.94381594,0.5609130859375,-0.0854268074035645,-0.038927435874939,0.568714844770991
4.94881594,0.717567443847656,-0.105499386787415,-0.0466251373291016,0.726778549844131
4.95381594,0.820950508117676,-0.129127502441406,-0.0644890666007996,0.833542133534033
4.95881594,0.843109130859375,-0.134812235832214,-0.0850667357444763,0.858046441050105
4.96381594,0.806384086608887,-0.137461423873901,-0.0995997190475464,0.824057669234283
4.96881594,0.701042175292969,-0.11368453502655,-0.101747870445251,0.717451694669296
4.97381594,0.544754028320313,-0.0914185047149658,-0.103056788444519,0.561903013001378
4.97881594,0.390664100646973,-0.0649704933166504,-0.10036438703537,0.408549403036037
4.98381594,0.251298904418945,-0.0422757863998413,-0.101850807666779,0.274430261633557
4.98881594,0.0775909423828125,-0.00985586643218994,-0.101777791976929,0.128359695320147
4.99381594,-0.145540237426758,0.0150530338287354,-0.113366365432739,0.185095886904911
4.99881594,-0.307042121887207,0.0357497930526733,-0.0997720956802368,0.32481900097244
5.00381594,-0.270606994628906,0.0182672739028931,-0.110446572303772,0.292848568669175
5.00881594,-0.0920209884643555,-0.0215206146240234,-0.0976244211196899,0.135873201076251
5.01381594,0.0874385833740234,-0.0505203008651733,-0.0804905891418457,0.129137684671691
5.01881594,0.178711891174316,-0.0707001686096191,-0.0523008704185486,0.199177897707218
5.02381594,0.240071296691895,-0.0861374139785767,-0.0505300164222717,0.26001377683092
5.02881594,0.249629020690918,-0.111348152160645,-0.0545414090156555,0.278725356324303
5.03381594,0.217726707458496,-0.107954502105713,-0.0387910008430481,0.246097207241397
5.03881594,0.141368865966797,-0.100638628005981,-0.0212617516517639,0.174829493492848
5.04381594,0.00861358642578125,-0.0792397260665894,-0.020940899848938,0.0824114636728761
5.04881594,-0.235913276672363,-0.058495044708252,-0.0419654846191406,0.246653291616047
5.05381594,-0.589508056640625,0.000186562538146973,-0.0568041205406189,0.592238542953918
5.05881594,-0.953750610351563,0.0668516159057617,-0.0812041163444519,0.959532945659748
5.06381594,-1.29437160491943,0.118208527565002,-0.105594158172607,1.30404034977871
5.06881594,-1.53420829772949,0.158354640007019,-0.119981229305267,1.54701867739836
5.07381594,-1.70631885528564,0.194296956062317,-0.152479529380798,1.72410131660485
5.07881594,-1.83926010131836,0.205863833427429,-0.149740606546402,1.85679290376281
5.08381594,-1.8797721862793,0.215376973152161,-0.162678122520447,1.89905104839765
5.08881594,-1.76811695098877,0.185459017753601,-0.168699115514755,1.78580289819885
5.09381594,-1.53503513336182,0.148249626159668,-0.156936436891556,1.55014188303388
5.09881594,-1.23237895965576,0.105594992637634,-0.134067922830582,1.24413922476726
5.10381594,-0.934255599975586,0.0551327466964722,-0.112691104412079,0.942641199427255
5.10881594,-0.657100677490234,-0.00664377212524414,-0.0946239531040192,0.663911991582626
5.11381594,-0.438901901245117,-0.0350160598754883,-0.0918237566947937,0.449769502811526
5.11881594,-0.24019718170166,-0.0578693151473999,-0.0844289064407349,0.26109726918493
5.12381594,-0.0667886734008789,-0.0904062986373901,-0.0700910687446594,0.132464273091769
5.12881594,0.0917015075683594,-0.0984660387039185,-0.0538648962974548,0.144935000332863
5.13381594,0.181967735290527,-0.104172587394714,-0.0420006513595581,0.213841622155043
5.13881594,0.158865928649902,-0.0936362743377686,-0.0369324088096619,0.188069503051765
5.14381594,0.111818313598633,-0.0689665079116821,-0.00648915767669678,0.131536396624384
5.14881594,0.0749883651733398,-0.061287522315979,-0.0169412791728973,0.0983179650064821
5.15381594,0.090606689453125,-0.0610926151275635,-0.00856408476829529,0.109613974221803
5.15881594,0.122239112854004,-0.0585113763809204,0.0120044052600861,0.136051782873184
5.16381594,0.197422027587891,-0.074027419090271,0.0111039280891418,0.211136953120692
5.16881594,0.301815986633301,-0.0886331796646118,0.00885224342346191,0.314685704375843
5.17381594,0.456498146057129,-0.108852028846741,0.0304060578346252,0.470280607606448
5.17881594,0.585131645202637,-0.126359105110168,0.0519391894340515,0.600868825169731
5.18381594,0.754475593566895,-0.154415130615234,0.0586652457714081,0.772346466886758
5.18881594,0.950723648071289,-0.193583369255066,0.0643861591815949,0.972365956493892
5.19381594,1.09033012390137,-0.221164464950562,0.0822411477565765,1.11557030528244
5.19881594,1.17453098297119,-0.235513925552368,0.0961399674415588,1.20176234440426
5.20381594,1.19058895111084,-0.236108064651489,0.105266690254211,1.21833088476725
5.20881594,1.15936470031738,-0.236557245254517,0.0847307741641998,1.18628206709656
5.21381594,1.09558582305908,-0.233367323875427,0.0900096595287323,1.12377504081079
5.21881594,0.968639373779297,-0.208351373672485,0.0952491462230682,0.995361708728532
5.22381594,0.801560401916504,-0.19001305103302,0.098936140537262,0.82969415894523
5.22881594,0.592364311218262,-0.147206664085388,0.102020919322968,0.618848565592373
5.23381594,0.372448921203613,-0.125397801399231,0.0906658470630646,0.403315141452883
5.23881594,0.157382965087891,-0.0719307661056519,0.0800385773181915,0.190655728137191
5.24381594,-0.00987625122070313,-0.0491800308227539,0.0724464058876038,0.0881175209361503
5.24881594,-0.17104434967041,-0.0287554264068604,0.0653072595596314,0.185332356196113
5.25381594,-0.276041984558105,-0.00804555416107178,0.0690509974956513,0.284661111561942
5.25881594,-0.354591369628906,-0.00909018516540527,0.0616209805011749,0.360020577355755
5.26381594,-0.328899383544922,-0.0127253532409668,0.0608069896697998,0.334715146212477
5.26881594,-0.2718505859375,-0.0139601230621338,0.0718954503536224,0.281543214963569
5.27381594,-0.16384220123291,-0.0337506532669067,0.0760170817375183,0.183744306623843
5.27881594,-0.0568389892578125,-0.0596984624862671,0.0843141376972199,0.11791289555727
5.28381594,0.0364751815795898,-0.0799943208694458,0.0971788167953491,0.131046757595798
5.28881594,0.0729227066040039,-0.0842480659484863,0.0989329516887665,0.149007337686323
5.29381594,0.105642318725586,-0.087199330329895,0.100260555744171,0.169753355648218
5.29881594,0.140345573425293,-0.100156664848328,0.096533328294754,0.197602937643339
5.30381594,0.188180923461914,-0.0916045904159546,0.0853506028652191,0.226026959342707
5.30881594,0.167665481567383,-0.093337893486023,0.0925790071487427,0.213059964879086
5.31381594,0.108328819274902,-0.0892565250396729,0.0945198237895966,0.169221326779069
5.31881594,0.0958538055419922,-0.0614168643951416,0.0812131464481354,0.139841190015744
5.32381594,0.0965642929077148,-0.0602681636810303,0.078353613615036,0.138189011809133
5.32881594,0.112414360046387,-0.0515766143798828,0.0747244656085968,0.144502184260378
5.33381594,0.184037208557129,-0.0529239177703857,0.06708624958992,0.202906875412608
5.33881594,0.295419692993164,-0.0780445337295532,0.0772233009338379,0.315162152645835
5.34381594,0.358109474182129,-0.0919171571731567,0.0756893157958984,0.377385786440675
5.34881594,0.376080513000488,-0.11042320728302,0.0937811136245728,0.403019520914365
5.35381594,0.400219917297363,-0.112539052963257,0.0804811418056488,0.423459838508584
5.35881594,0.459394454956055,-0.117369532585144,0.0806353390216827,0.480958345725248
5.36381594,0.499056816101074,-0.120613098144531,0.0856516063213348,0.520520338513673
5.36881594,0.514100074768066,-0.122894883155823,0.0840811729431152,0.535230495044803
5.37381594,0.497502326965332,-0.13077187538147,0.093632310628891,0.522854528832267
5.37881594,0.385970115661621,-0.102261781692505,0.0936981439590454,0.410133812749133
5.38381594,0.232955932617188,-0.0891399383544922,0.0845902860164642,0.26338168432853
5.38881594,0.0835704803466797,-0.0654541254043579,0.0739750266075134,0.129385363466686
5.39381594,-0.0769548416137695,-0.0406608581542969,0.0747831761837006,0.114751368069259
5.39881594,-0.252229690551758,0.000356793403625488,0.0729928612709045,0.262579324955111
5.40381594,-0.402688980102539,0.0106101036071777,0.0591313540935516,0.407145558776607
5.40881594,-0.524102210998535,0.034841775894165,0.082755446434021,0.531738225855079
5.41381594,-0.613110542297363,0.0487844944000244,0.0826081037521362,0.620571158510897
5.41881594,-0.623932838439941,0.0538694858551025,0.0906389355659485,0.632779207173042
5.42381594,-0.578235626220703,0.0450423955917358,0.0854331254959106,0.586245746904394
5.42881594,-0.501018524169922,0.0325521230697632,0.0999994575977325,0.51193661111274
5.43381594,-0.437772750854492,0.032393217086792,0.0998455882072449,0.450181567135297
5.43881594,-0.345864295959473,0.00879442691802979,0.117187172174454,0.365283843725127
5.44381594,-0.23211669921875,-0.0042109489440918,0.115293741226196,0.259207524800401
5.44881594,-0.103701591491699,-0.0195521116256714,0.130317479372025,0.167687061447245
5.45381594,0.0308952331542969,-0.0398736000061035,0.134380638599396,0.143535972632252
5.45881594,0.174915313720703,-0.0525230169296265,0.141828566789627,0.231234462481269
5.46381594,0.312350273132324,-0.0760576725006104,0.141914010047913,0.35140724084732
5.46881594,0.436031341552734,-0.0879319906234741,0.138584226369858,0.465898007711791
5.47381594,0.542793273925781,-0.105266094207764,0.119039118289948,0.565575636402483
5.47881594,0.618677139282227,-0.112856388092041,0.128993973135948,0.641979292585842
5.48381594,0.703081130981445,-0.121285676956177,0.113366484642029,0.722416259518678
5.48881594,0.775245666503906,-0.140430331230164,0.085616871714592,0.792500328129075
5.49381594,0.793253898620606,-0.134847760200501,0.0752736628055573,0.808147134140836
5.49881594,0.781129837036133,-0.11984395980835,0.0590718984603882,0.792474533469912
5.50381594,0.732011795043945,-0.130794525146484,0.0353469252586365,0.744444679621658
5.50881594,0.681270599365234,-0.12525200843811,0.0277830511331558,0.693245694618808
5.51381594,0.621950149536133,-0.110459923744202,0.00187170505523682,0.631685749832467
5.51881594,0.530289649963379,-0.0722247362136841,-0.0235053300857544,0.535701433563379
5.52381594,0.389270782470703,-0.0662046670913696,-0.0202365219593048,0.39537870055308
5.52881594,0.238104820251465,-0.040074348449707,-0.0645994693040848,0.249945894675268
5.53381594,0.0755643844604492,-0.0341464281082153,-0.0622972846031189,0.103715507135424
5.53881594,-0.085536003112793,-0.00462865829467773,-0.0633227080106735,0.106525103407252
5.54381594,-0.23780632019043,0.0370960235595703,-0.0581651777029038,0.247610881795723
5.54881594,-0.371550559997559,0.0446146726608276,-0.0598144233226776,0.378969725556748
5.55381594,-0.472122192382813,0.0594890117645264,-0.0557313114404678,0.47910780220734
5.55881594,-0.587041854858398,0.0741136074066162,-0.0350018590688705,0.59273611016766
5.56381594,-0.676222801208496,0.0919719934463501,-0.0322612822055817,0.683210739656739
5.56881594,-0.734614372253418,0.107885003089905,-0.00833985209465027,0.742540909947696
5.57381594,-0.729028701782227,0.102670550346375,0.0155660808086395,0.73638739315828
5.57881594,-0.687771797180176,0.0877877473831177,0.0199069380760193,0.693637527654476
5.58381594,-0.648558616638184,0.0761432647705078,0.054785281419754,0.6553071822022
5.58881594,-0.569540977478027,0.0730036497116089,0.0670559704303742,0.578102898339216
5.59381594,-0.487107276916504,0.0572476387023926,0.0691437721252441,0.495309653232924
5.59881594,-0.374116897583008,0.0514200925827026,0.0836091637611389,0.386778969494446
5.60381594,-0.261173248291016,0.0277122259140015,0.0962235033512116,0.279711272002345
5.60881594,-0.130413055419922,0.00543057918548584,0.0948534905910492,0.161351296528896
5.61381594,-0.0123167037963867,-0.010502815246582,0.100142851471901,0.101442599638589
5.61881594,0.101670265197754,-0.0436902046203613,0.0774475038051605,0.135069584477043
5.62381594,0.197263717651367,-0.0468348264694214,0.0656155198812485,0.21310061408017
5.62881594,0.273127555847168,-0.0561113357543945,0.0629775673151016,0.285855414061232
5.63381594,0.339709281921387,-0.0646088123321533,0.0370513200759888,0.34777793945834
5.63881594,0.394125938415527,-0.0928723812103272,0.00361686944961548,0.404936558325143
5.64381594,0.414852142333984,-0.0769120454788208,-0.0212492942810059,0.422456264299955
5.64881594,0.420613288879395,-0.0924732685089111,-0.0389908254146576,0.432420083526631
5.65381594,0.415444374084473,-0.0919328927993774,-0.0800011157989502,0.432950185663406
5.65881594,0.360506057739258,-0.0802263021469116,-0.109062731266022,0.38509162101255
5.66381594,0.292934417724609,-0.0795588493347168,-0.122397214174271,0.327293846004997
5.66881594,0.20491886138916,-0.0495808124542236,-0.139187425374985,0.25263241300191
5.67381594,0.114497184753418,-0.0594916343688965,-0.15701712667942,0.203231980620674
5.67881594,0.00821304321289063,-0.0319910049438477,-0.183091253042221,0.18604646037134
5.68381594,-0.0774097442626953,-0.0230560302734375,-0.187863856554031,0.204491265432388
5.68881594,-0.131233215332031,-0.0128694772720337,-0.192270427942276,0.233143084205268
5.69381594,-0.176105499267578,-0.0076899528503418,-0.198431491851807,0.265419176409047
5.69881594,-0.218634605407715,-0.00168251991271973,-0.181956380605698,0.284450428015444
5.70381594,-0.241667747497559,0.015027642250061,-0.182747930288315,0.30335776936944
5.70881594,-0.262283325195313,0.0163158178329468,-0.154398441314697,0.304791120716264
5.71381594,-0.234006881713867,0.0127438306808472,-0.126152291893959,0.266150383542779
5.71881594,-0.167240142822266,0.00712037086486816,-0.10449381172657,0.197329475095873
5.72381594,-0.0994720458984375,-0.00210070610046387,-0.0840596854686737,0.13025026526819
5.72881594,-0.028529167175293,-0.0149803161621094,-0.0598088204860687,0.0679368696656489
5.73381594,0.0493297576904297,-0.0310832262039185,-0.0269282162189484,0.0642239890833239
5.73881594,0.154694557189941,-0.0426599979400635,-0.0165289640426636,0.161317972032759
5.74381594,0.260010719299316,-0.0556297302246094,-0.00207808613777161,0.265903289707756
5.74881594,0.37272834777832,-0.0735278129577637,0.0191441178321838,0.380393556416879
5.75381594,0.472873687744141,-0.0875850915908814,0.0355337560176849,0.482227457375096
5.75881594,0.523820877075195,-0.102557420730591,0.0411433577537537,0.535349522923101
5.76381594,0.597043037414551,-0.108960390090942,0.0415773391723633,0.608326746302196
5.76881594,0.644585609436035,-0.120362639427185,0.0395437180995941,0.656918167280403
5.77381594,0.660844802856445,-0.126711487770081,0.00307035446166992,0.67289009628007
5.77881594,0.639150619506836,-0.120259642601013,-0.0162146389484406,0.650568067592257
5.78381594,0.611469268798828,-0.106619477272034,-0.0528651773929596,0.622942297969824
5.78881594,0.549762725830078,-0.107375860214233,-0.082814484834671,0.56623923298134
5.79381594,0.495175361633301,-0.104404330253601,-0.120415568351746,0.520191130302937
5.79881594,0.404997825622559,-0.0894970893859863,-0.156396687030792,0.443275187081085
5.80381594,0.295221328735352,-0.0610990524291992,-0.189505994319916,0.3560916301055
5.80881594,0.169883728027344,-0.0547696352005005,-0.210509181022644,0.275996937090412
5.81381594,0.0322885513305664,-0.0431548357009888,-0.251843571662903,0.257546257940848
5.81881594,-0.117983818054199,-0.0206974744796753,-0.300812900066376,0.323785372768485
5.82381594,-0.249072074890137,-0.0182485580444336,-0.316248774528503,0.402967983531644
5.82881594,-0.381617546081543,0.0129446983337402,-0.329181730747223,0.504142964396001
5.83381594,-0.481263160705566,0.0405417680740356,-0.343430817127228,0.592623481616748
5.83881594,-0.554821968078613,0.0441913604736328,-0.370435357093811,0.668582565124425
5.84381594,-0.611995697021484,0.0496900081634522,-0.332624673843384,0.698317265813694
5.84881594,-0.634143829345703,0.0460859537124634,-0.333501249551773,0.717973115707972
5.85381594,-0.58946418762207,0.0585715770721436,-0.314656049013138,0.67075113664475
5.85881594,-0.507863998413086,0.0823616981506348,-0.309568971395493,0.600451695190584
5.86381594,-0.397299766540527,0.0920336246490479,-0.283857315778732,0.49688254978446
5.86881594,-0.15394401550293,0.106317758560181,-0.248577624559402,0.311115832329411
5.87381594,-0.00917148590087891,0.127816677093506,-0.215258806943893,0.250514616467311
5.87881594,-0.0156927108764648,0.127776861190796,-0.1699098944664,0.213172605341323
5.88381594,0.0253257751464844,0.127423048019409,-0.136891573667526,0.188725544096444
5.88881594,0.0316629409790039,0.1292564868927,-0.102255910634995,0.167827448574644
5.89381594,0.0361728668212891,0.127109885215759,-0.0681683123111725,0.14870211167629
5.89881594,0.0642862319946289,0.128273129463196,-0.0552786886692047,0.15376101192219
5.90381594,0.130367279052734,0.135982632637024,-0.066601425409317,0.199806540666371
5.90881594,0.179981231689453,0.122093319892883,-0.0852265357971191,0.233588494851301
5.91381594,0.23216724395752,0.127480626106262,-0.114580124616623,0.288585419168114
5.91881594,0.259583473205566,0.125414967536926,-0.157522648572922,0.328520742811137
5.92381594,0.2701416015625,0.12692928314209,-0.20144185423851,0.360092138837779
5.92881594,0.242868423461914,0.126497507095337,-0.256313562393189,0.375077768846539
5.93381594,0.196873664855957,0.124616265296936,-0.299894005060196,0.379769492931458
5.93881594,0.145520210266113,0.126705646514893,-0.34119787812233,0.391977607128049
5.94381594,0.118684768676758,0.123414039611816,-0.35275274515152,0.392111717117833
5.94881594,0.0847616195678711,0.0783156156539917,-0.345580041408539,0.364339721725424
5.95381594,0.0465555191040039,0.0429800748825073,-0.319624364376068,0.325844192059264
5.95881594,-0.0434656143188477,0.0116481781005859,-0.281076043844223,0.284655374276154
5.96381594,-0.149337768554688,-0.0195108652114868,-0.25021231174469,0.292042195456095
5.96881594,-0.235939025878906,-0.0481662750244141,-0.224132776260376,0.328972210644909
5.97381594,-0.24647331237793,-0.0838589668273926,-0.207415133714676,0.332870031282155
5.97881594,-0.222368240356445,-0.102144122123718,-0.199144661426544,0.315499052579148
5.98381594,-0.161422729492188,-0.106658458709717,-0.199205309152603,0.277697820671363
5.98881594,-0.0842113494873047,-0.0891166925430298,-0.241064310073853,0.270453947768681
5.99381594,0.0704755783081055,-0.0751436948776245,-0.263946503400803,0.283339264266768
5.99881594,0.233019828796387,-0.0535202026367188,-0.290854036808014,0.376508596754563
6.00381594,0.277187347412109,-0.0375480651855469,-0.331084281206131,0.43342759952075
6.00881594,0.279374122619629,-0.0319311618804932,-0.32937690615654,0.433080414932123
6.01381594,0.26927375793457,-0.0242267847061157,-0.334142178297043,0.429821229264557
6.01881594,0.247441291809082,-0.0360304117202759,-0.325760960578918,0.410664810883742
6.02381594,0.250843048095703,-0.0654149055480957,-0.303341299295425,0.399020411137133
6.02881594,0.288130760192871,-0.063988208770752,-0.270696192979813,0.400487521309685
6.03381594,0.374855041503906,-0.0898443460464478,-0.234632611274719,0.451265743139231
6.03881594,0.47813606262207,-0.121752977371216,-0.180023729801178,0.525210838778123
6.04381594,0.593542098999023,-0.128718972206116,-0.141216218471527,0.623540549963965
6.04881594,0.672483444213867,-0.140792727470398,-0.122694671154022,0.69793306067265
6.05381594,0.679523468017578,-0.135347723960876,-0.11480975151062,0.702319321256333
6.05881594,0.633079528808594,-0.128891825675964,-0.115829676389694,0.656368270451227
6.06381594,0.537013053894043,-0.0976765155792236,-0.149685174226761,0.565976477542663
6.06881594,0.391510963439941,-0.0905407667160034,-0.202976375818253,0.450197594475476
6.07381594,0.203377723693848,-0.0671899318695068,-0.221310824155808,0.307986146324868
6.07881594,0.013458251953125,-0.0440030097961426,-0.144404590129852,0.151558817187664
6.08381594,-0.20457935333252,-0.00453412532806397,-0.0409486889839172,0.208686523838853
6.08881594,-0.406686782836914,0.0334228277206421,-0.0062209963798523,0.408105287325515
6.09381594,-0.506891250610352,0.0525604486465454,-0.0454038381576538,0.511627647050762
6.09881594,-0.603240966796875,0.0806173086166382,-0.0849965214729309,0.614510555754022
6.10381594,-0.760961532592773,0.10095739364624,-0.0682461857795715,0.770657116551352
6.10881594,-0.891911506652832,0.103573322296143,-0.0727502703666687,0.900847473565647
6.11381594,-0.94248104095459,0.0927908420562744,-0.0979304313659668,0.952087717763381
6.11881594,-0.953840255737305,0.07802414894104,-0.131137251853943,0.965968933303129
6.12381594,-0.929243087768555,0.0608593225479126,-0.165910184383392,0.945897860547723
6.12881594,-0.842352867126465,0.0471024513244629,-0.189517021179199,0.86469283274096
6.13381594,-0.712028503417969,0.0105119943618774,-0.209415122866631,0.74225991767732
6.13881594,-0.591611862182617,-0.00207388401031494,-0.232672289013863,0.635724225230581
6.14381594,-0.44561767578125,-0.0171104669570923,-0.225529223680496,0.499731239549921
6.14881594,-0.314786911010742,-0.0310623645782471,-0.233074858784676,0.392911643546451
6.15381594,-0.218912124633789,-0.0470865964889526,-0.21034449338913,0.307220558849376
6.15881594,-0.176173210144043,-0.0562206506729126,-0.195592567324638,0.26917320432611
6.16381594,-0.151128768920898,-0.0622689723968506,-0.185809195041657,0.247471991710041
6.16881594,-0.128510475158691,-0.0806868076324463,-0.14033842086792,0.206688595532336
6.17381594,0.0812692642211914,-0.0957955121994019,-0.0760712921619415,0.146861550297507
6.17881594,0.51014518737793,-0.138562083244324,-0.0277791619300842,0.529357388685005
6.18381594,0.757123947143555,-0.138105988502502,-0.00928819179534912,0.76967279145447
6.18881594,0.990524291992188,-0.111589312553406,-0.00777930021286011,0.996820477926978
6.19381594,1.13593196868896,-0.104396820068359,-0.0228098332881928,1.14094716004932
6.19881594,1.11913299560547,-0.0535933971405029,-0.0326906740665436,1.12089232053791
6.20381594,0.99201774597168,-0.0318092107772827,-0.0434147119522095,0.99347665872274
6.20881594,0.826534271240234,0.00781786441802979,-0.0837533473968506,0.830803613219672
6.21381594,0.706124305725098,0.0377993583679199,-0.148207455873489,0.722499672391116
6.21881594,0.640796661376953,0.0574454069137573,-0.182038307189941,0.668624170436514
6.22381594,0.577072143554688,0.0625525712966919,-0.214217454195023,0.618719807929588
6.22881594,0.599769592285156,0.0649595260620117,-0.237129539251328,0.64820808560342
6.23381594,0.623069763183594,0.0587241649627686,-0.276180148124695,0.684061350729898
6.23881594,0.648381233215332,0.0403754711151123,-0.287713319063187,0.710497963557924
6.24381594,0.677111625671387,0.020211935043335,-0.291680723428726,0.737540724541668
6.24881594,0.68733024597168,-0.00848257541656494,-0.274278372526169,0.740083405265103
6.25381594,0.674860954284668,-0.0437777042388916,-0.283054351806641,0.733125883517366
6.25881594,0.558021545410156,-0.0399667024612427,-0.254271060228348,0.614523518278359
6.26381594,0.436793327331543,-0.0640066862106323,-0.248348355293274,0.506519666210406
6.26881594,0.322592735290527,-0.0681105852127075,-0.230811983346939,0.402466515795773
6.27381594,0.190237998962402,-0.0707181692123413,-0.22153651714325,0.300449636601421
6.27881594,0.00186824798583984,-0.065929651260376,-0.193810194730759,0.204725672174806
6.28381594,-0.161840438842773,-0.0639656782150269,-0.20618399977684,0.269806926149619
6.28881594,-0.327703475952148,-0.0619969367980957,-0.189341813325882,0.383514681071013
6.29381594,-0.462376594543457,-0.0759634971618652,-0.196805655956268,0.508227345091783
6.29881594,-0.584232330322266,-0.0783885717391968,-0.203066349029541,0.623464614939199
6.30381594,-0.699318885803223,-0.0876455307006836,-0.200768560171127,0.732827850075345
6.30881594,-0.842597007751465,-0.0944957733154297,-0.190221130847931,0.868955261948087
6.31381594,-0.987227439880371,-0.0938942432403565,-0.196959018707275,1.0110524229814
6.31881594,-1.10558700561523,-0.079102635383606,-0.202711224555969,1.12679709551936
6.32381594,-1.17682075500488,-0.0766117572784424,-0.206584364175797,1.19726920543605
6.32881594,-1.21586132049561,-0.0699639320373535,-0.208275198936462,1.23555342294677
6.33381594,-1.19748687744141,-0.0872231721878052,-0.21252566576004,1.21932352639389
6.33881594,-1.11676692962646,-0.0760751962661743,-0.188601583242416,1.13513275337989
6.34381594,-1.00947666168213,-0.0970883369445801,-0.167888283729553,1.02793762041537
6.34881594,-0.847790718078613,-0.101761698722839,-0.159625262022018,0.868668388548131
6.35381594,-0.686960220336914,-0.121474742889404,-0.127192556858063,0.709118046594134
6.35881594,-0.514256477355957,-0.131877303123474,-0.0841515958309174,0.537524733070553
6.36381594,-0.361979484558105,-0.150185704231262,-0.0611312091350555,0.396638270627918
6.36881594,-0.211506843566895,-0.161851763725281,-0.0396001636981964,0.269256961398473
6.37381594,-0.0893621444702148,-0.180719137191772,0.0222681760787964,0.202832125358708
6.37881594,0.0476713180541992,-0.183863759040833,0.0393121540546417,0.193968765294997
6.38381594,0.118586540222168,-0.170915842056274,0.0771775543689728,0.221881426636041
6.38881594,0.169838905334473,-0.174149394035339,0.0999959707260132,0.263006576665918
6.39381594,0.194827079772949,-0.166913866996765,0.123281955718994,0.284633572535934
6.39881594,0.217178344726563,-0.162387728691101,0.137093335390091,0.303859820404087
6.40381594,0.246277809143066,-0.143359780311584,0.177186012268066,0.335558741252189
6.40881594,0.27149486541748,-0.150883913040161,0.179455935955048,0.358719737555475
6.41381594,0.34024715423584,-0.15765643119812,0.187849521636963,0.419417595056467
6.41881594,0.413480758666992,-0.161519765853882,0.202387988567352,0.487868702076351
6.42381594,0.510373115539551,-0.170316576957703,0.213665217161179,0.578913878289915
6.42881594,0.589207649230957,-0.163593888282776,0.224586635828018,0.6514351626895
6.43381594,0.640434265136719,-0.176525950431824,0.213893502950668,0.69790249300427
6.43881594,0.684369087219238,-0.175637483596802,0.226980865001678,0.742111774776833
6.44381594,0.73204231262207,-0.187577366828918,0.24202173948288,0.793502198105247
6.44881594,0.75887393951416,-0.18362021446228,0.260783672332764,0.823173227813124
6.45381594,0.768718719482422,-0.203041315078735,0.254797965288162,0.834910922450164
6.45881594,0.753849983215332,-0.207805514335632,0.27521151304245,0.828983899658593
6.46381594,0.697288513183594,-0.213605523109436,0.282509088516235,0.782080542664831
6.46881594,0.608736991882324,-0.215749740600586,0.304845631122589,0.714170522123177
6.47381594,0.510778427124023,-0.216588735580444,0.319746971130371,0.640346318442352
6.47881594,0.422338485717773,-0.216476440429688,0.326554030179977,0.576081053677584
6.48381594,0.344148635864258,-0.232073903083801,0.345447540283203,0.540028316986706
6.48881594,0.250340461730957,-0.243620157241821,0.346786469221115,0.492221477618608
6.49381594,0.138363838195801,-0.269983470439911,0.366149961948395,0.47550123098249
6.49881594,0.0167131423950195,-0.258294105529785,0.353473752737045,0.43810828336629
6.50381594,-0.0995082855224609,-0.259263634681702,0.324569076299667,0.427158771940839
6.50881594,-0.196085929870605,-0.263905882835388,0.315935075283051,0.455972563519399
6.51381594,-0.270262718200684,-0.257818043231964,0.313576996326447,0.48769110396879
6.51881594,-0.343229293823242,-0.249893546104431,0.317184180021286,0.529961259507546
6.52381594,-0.410801887512207,-0.255462169647217,0.322070479393005,0.581161341282174
6.52881594,-0.436832427978516,-0.25810581445694,0.317294239997864,0.598428622582432
6.53381594,-0.452835083007813,-0.277776300907135,0.321378350257874,0.620889144503925
6.53881594,-0.442612648010254,-0.28565788269043,0.343218773603439,0.628733257173245
6.54381594,-0.409308433532715,-0.29592227935791,0.34258446097374,0.610301156874255
6.54881594,-0.413336753845215,-0.311667323112488,0.360836058855057,0.631020169048069
6.55381594,-0.419775009155273,-0.306646049022675,0.384434819221497,0.646554706055405
6.55881594,-0.412008285522461,-0.30530846118927,0.406039327383041,0.654088693675858
6.56381594,-0.387531280517578,-0.303014636039734,0.415735989809036,0.644076685074367
6.56881594,-0.38874340057373,-0.32059508562088,0.411579847335815,0.650615563252879
6.57381594,-0.358009338378906,-0.326804220676422,0.399879276752472,0.62839089824289
6.57881594,-0.310587882995605,-0.286422431468964,0.370965003967285,0.562243431691943
6.58381594,-0.294052124023438,-0.294707894325256,0.344062745571137,0.540091258501996
6.58881594,-0.278571128845215,-0.272687137126923,0.336668312549591,0.515078344774427
6.59381594,-0.300786018371582,-0.279588401317596,0.322031378746033,0.521867906558958
6.59881594,-0.296503067016602,-0.273257255554199,0.319811403751373,0.514648356096362
6.60381594,-0.26371955871582,-0.284169912338257,0.311563819646835,0.497365618474503
6.60881594,-0.245744705200195,-0.298623859882355,0.283791482448578,0.479691854564291
6.61381594,-0.16100025177002,-0.297691524028778,0.273618161678314,0.435210550134997
6.61881594,-0.123380661010742,-0.30077475309372,0.243262022733688,0.406035283336955
6.62381594,-0.103129386901855,-0.287187695503235,0.222336292266846,0.377552472843418
6.62881594,-0.12822437286377,-0.284454345703125,0.192872196435928,0.366818004933944
6.63381594,-0.151148796081543,-0.271582007408142,0.186091601848602,0.36226072045326
6.63881594,-0.17185115814209,-0.262686908245087,0.191852807998657,0.367892283494924
6.64381594,-0.174453735351563,-0.263667821884155,0.172413200139999,0.360112673558934
6.64881594,-0.160708427429199,-0.242729902267456,0.178089290857315,0.341263533972788
6.65381594,-0.124421119689941,-0.248736619949341,0.182625830173492,0.332720175185213
6.65881594,-0.0937938690185547,-0.246266186237335,0.183917075395584,0.321356211969547
6.66381594,-0.0503749847412109,-0.233744382858276,0.183259606361389,0.301260948231272
6.66881594,0.0142717361450195,-0.249587059020996,0.182397544384003,0.30946121999478
6.67381594,0.0763273239135742,-0.239624977111816,0.20580580830574,0.324964645406274
6.67881594,0.12473201751709,-0.254463613033295,0.195891290903091,0.344504287931981
6.68381594,0.16729736328125,-0.252510547637939,0.231309175491333,0.381121921562839
6.68881594,0.229132652282715,-0.215843319892883,0.490210711956024,0.582577594145986
6.69381594,0.265064239501953,-0.141059994697571,1.02607786655426,1.0691083955331
6.69881594,0.252861022949219,-0.0888639092445374,1.42150568962097,1.44655242453149
6.70381594,0.22455883026123,-0.0724470019340515,1.57764625549316,1.59519370103105
6.70881594,0.188777923583984,-0.0743913650512695,1.55083727836609,1.56405480837367
6.71381594,0.16990852355957,-0.100356459617615,1.35081887245178,1.36515638354625
6.71881594,0.171552658081055,-0.149670600891113,1.05842506885529,1.0826334696688
6.72381594,0.192666053771973,-0.198634386062622,0.728036284446716,0.778853425923979
6.72881594,0.234104156494141,-0.260231137275696,0.375778138637543,0.513550591834467
6.73381594,0.211119651794434,-0.311633944511414,0.0202286839485168,0.3769567911576
6.73881594,0.179596900939941,-0.339985728263855,-0.26591157913208,0.467497925307537
6.74381594,0.125730514526367,-0.359266519546509,-0.338739931583405,0.509534430239269
6.74881594,0.105957984924316,-0.363612413406372,-0.320700645446777,0.496276118448599
6.75381594,0.0919780731201172,-0.376661449670792,-0.306788265705109,0.49442173655427
6.75881594,0.0901556015014648,-0.377198189496994,-0.252577781677246,0.462819665138485
6.76381594,0.0150623321533203,-0.382930338382721,-0.222931802272797,0.443352124578646
6.76881594,-0.0975923538208008,-0.376363068819046,-0.200925946235657,0.437658157659455
6.77381594,-0.163351058959961,-0.370971113443375,-0.191186904907227,0.44816912887967
6.77881594,-0.155037879943848,-0.369870811700821,-0.16400283575058,0.433287539285333
6.78381594,-0.199316024780273,-0.362229913473129,-0.0899558067321777,0.42311870097385
6.78881594,-0.15252685546875,-0.338261902332306,-0.0941527485847473,0.382818881815824
6.79381594,-0.160930633544922,-0.343748718500137,-0.0466148257255554,0.382406579782671
6.79881594,-0.200558662414551,-0.323614686727524,-0.00555568933486939,0.380763848361754
6.80381594,-0.243203163146973,-0.316852867603302,-0.00318241119384766,0.399441667849181
6.80881594,-0.228028297424316,-0.310993283987045,-0.00795096158981323,0.385716145502729
6.81381594,-0.236721992492676,-0.306326299905777,-0.00537103414535523,0.387171734184531
6.81881594,-0.240349769592285,-0.300164133310318,0.000714302062988281,0.384534821435506
6.82381594,-0.241857528686523,-0.288164645433426,-0.00551778078079224,0.376250412577673
6.82881594,-0.207898139953613,-0.303970783948898,-0.0479428172111511,0.371373649863344
6.83381594,-0.178746223449707,-0.301760643720627,-0.0706534385681152,0.357773122072799
6.83881594,-0.19068431854248,-0.293849498033524,-0.0884244441986084,0.361285094024645
6.84381594,-0.15656852722168,-0.303580641746521,-0.116910099983215,0.361030305151355
