Time (s),Linear Acceleration x (m/s^2),Linear Acceleration y (m/s^2),Linear Acceleration z (m/s^2),Absolute acceleration (m/s^2)
0.024577621,-0.0599803924560547,-0.0944940447807312,-0.0652875900268555,0.129573305081409
0.029577621,0.0192680358886719,-0.212968766689301,-0.203925371170044,0.295486902922971
0.034577621,0.143596649169922,-0.308576762676239,-0.0624513626098633,0.346034375183169
0.039577621,0.292625427246094,-0.1628258228302,0.222334384918213,0.401963266938971
0.044577621,0.256339073181152,-0.13357949256897,0.610937118530273,0.675867859919695
0.049577621,0.290886878967285,-0.0212999582290649,0.93545937538147,0.979874026375318
0.054577621,0.262316703796387,0.0403342247009277,1.08525800704956,1.11723849049252
0.059577621,0.200695037841797,0.112995505332947,0.992668628692627,1.01903753062891
0.064577621,0.0934953689575195,0.177926361560822,0.734340667724609,0.761351029702463
0.069577621,-0.0690212249755859,0.210931658744812,0.423884868621826,0.478470977180969
0.074577621,-0.237991333007813,0.243542611598969,0.181831121444702,0.386025174019933
0.079577621,-0.286917686462402,0.24575799703598,0.0720534324645996,0.384591275306662
0.084577621,-0.24887752532959,0.244146227836609,0.0621254444122314,0.354128471072919
0.089577621,-0.175002098083496,0.218752801418304,0.0859551429748535,0.293030389321328
0.094577621,-0.0795345306396484,0.207611799240112,0.151403903961182,0.268982421140253
0.099577621,0.0227251052856445,0.196573793888092,0.186326742172241,0.271800187090301
0.104577621,0.119136810302734,0.172136783599854,0.253158330917358,0.328502347556414
0.109577621,0.193363189697266,0.12667590379715,0.231061935424805,0.326842050132755
0.114577621,0.227828025817871,0.0795369744300842,0.222396850585938,0.328164743383722
0.119577621,0.241664886474609,0.0219959616661072,0.199321269989014,0.314029788960277
0.124577621,0.225868225097656,-0.0474150776863098,0.212625026702881,0.313805746730625
0.129577621,0.175271034240723,-0.107117414474487,0.243280172348022,0.318401190615229
0.134577621,0.141363143920898,-0.124448001384735,0.307528257369995,0.360616794657267
0.139577621,0.167856216430664,-0.127091884613037,0.331727743148804,0.392901198908212
0.144577621,0.179091453552246,-0.106396079063416,0.286745071411133,0.354424336571433
0.149577621,0.207841873168945,-0.0869672894477844,0.221456050872803,0.31591824281679
0.154577621,0.211929321289063,-0.0687395334243774,0.110393047332764,0.248647914885401
0.159577621,0.18329906463623,-0.0192938446998596,-0.00728154182434082,0.18445546994101
0.164577621,0.164203643798828,-0.0136048197746277,-0.0860936641693115,0.185903326403835
0.169577621,0.174032211303711,0.0320562720298767,-0.120482206344604,0.214081239704409
0.174577621,0.167359352111816,0.0725911259651184,-0.165345668792725,0.246206853066043
0.179577621,0.176609039306641,0.0998324751853943,-0.198966503143311,0.284156550583536
0.184577621,0.146810531616211,0.105481207370758,-0.232352256774902,0.294392915217431
0.189577621,0.0779352188110352,0.102864682674408,-0.285032749176025,0.312887694509825
0.194577621,0.0431709289550781,0.135270535945892,-0.263604164123535,0.299414432426363
0.199577621,0.0726108551025391,0.160767138004303,-0.212416172027588,0.276114177614389
0.204577621,0.100225448608398,0.193283379077911,-0.134170770645142,0.255744796373341
0.209577621,0.131218910217285,0.214379370212555,-0.064547061920166,0.259505760964703
0.214577621,0.149595260620117,0.252172291278839,0.0335845947265625,0.295122909127312
0.219577621,0.173171997070313,0.301579892635345,0.294250011444092,0.455545871944983
0.224577621,0.19892406463623,0.343824028968811,0.942683696746826,1.02295566790551
0.229577621,0.216019630432129,0.35777223110199,0.872695446014404,0.967606733944121
0.234577621,0.232357978820801,0.381447017192841,0.74953031539917,0.872518051933243
0.239577621,0.241870880126953,0.386728763580322,0.626326560974121,0.774819734012642
0.244577621,0.215563774108887,0.417631208896637,0.41313099861145,0.625748183669939
0.249577621,0.145512580871582,0.439018428325653,0.273800849914551,0.537473717511253
0.254577621,0.113029479980469,0.450042843818665,0.121925354003906,0.479770795866134
0.259577621,0.289752960205078,0.399433612823486,0.109359502792358,0.505433961909783
0.264577621,0.33588981628418,0.338255345821381,0.201862573623657,0.517674749519549
0.269577621,-0.0288600921630859,0.328822016716003,0.0663387775421143,0.336686288706005
0.274577621,-0.258681297302246,0.293831884860992,-0.192116975784302,0.436075821984483
0.279577621,-0.840377807617188,0.0406510829925537,-0.540908813476563,1.00023482971778
0.284577621,-0.9658203125,-0.154008686542511,-0.63922905921936,1.16839263166053
0.289577621,-0.743777275085449,-0.250074207782745,-0.692599892616272,1.04663095481826
0.294577621,-0.782252311706543,-0.499733746051788,-0.849495053291321,1.2582902454043
0.299577621,-0.406948089599609,-0.753905594348908,-0.813135266304016,1.18117287224464
0.304577621,-0.119973182678223,-0.793517827987671,-0.624167203903198,1.01668520512721
0.309577621,0.165081977844238,-0.901382088661194,-0.24104642868042,0.947546890632736
0.314577621,0.545986175537109,-0.878333926200867,0.0893750190734863,1.03805553022343
0.319577621,0.585343360900879,-0.839610934257507,0.502514123916626,1.14021656531169
0.324577621,0.562813758850098,-0.76073694229126,0.784284114837647,1.22905719773504
0.329577621,0.455668449401855,-0.671626925468445,0.995864868164063,1.28470358388148
0.334577621,0.289567947387695,-0.588340997695923,1.02666711807251,1.21821184407946
0.339577621,0.166069030761719,-0.518995523452759,1.11381244659424,1.2399650973033
0.344577621,0.0607471466064453,-0.456830978393555,1.04734992980957,1.1442581151615
0.349577621,-0.0472164154052734,-0.402298808097839,0.921835660934448,1.00690352400372
0.354577621,-0.078369140625,-0.387902617454529,0.766726493835449,0.862832358676688
0.359577621,-0.000566482543945313,-0.386845231056213,0.587231159210205,0.703199820848078
0.364577621,0.133882522583008,-0.379698276519775,0.36522650718689,0.543585975350002
0.369577621,0.271218299865723,-0.391399621963501,0.170588493347168,0.505819596612944
0.374577621,0.394313812255859,-0.391443848609924,0.0456173419952393,0.557487767615586
0.379577621,0.503174781799316,-0.381258845329285,-0.0739676952362061,0.635621261538005
0.384577621,0.582297325134277,-0.348768472671509,-0.157840728759766,0.696866786440253
0.389577621,0.603964805603027,-0.300439715385437,-0.263994693756104,0.724382983869282
0.394577621,0.599064826965332,-0.217452049255371,-0.265089750289917,0.690243896272277
0.399577621,0.531469345092773,-0.162587881088257,-0.27364456653595,0.619496434731273
0.404577621,0.406808853149414,-0.060816764831543,-0.191087961196899,0.453549039024122
0.409577621,0.197514533996582,0.0566947460174561,0.0551130771636963,0.21275275941882
0.414577621,0.00672721862792969,0.171486377716064,0.159956455230713,0.234603710078549
0.419577621,-0.0168342590332031,0.242032289505005,0.158031463623047,0.289546136108002
0.424577621,0.032135009765625,0.29543948173523,0.187369823455811,0.351318369805052
0.429577621,0.0366334915161133,0.344905972480774,0.103885650634766,0.362069566466692
0.434577621,0.042363166809082,0.388720333576202,0.0908744335174561,0.401442770896185
0.439577621,0.0740995407104492,0.432845592498779,0.063873291015625,0.443763277192115
0.444577621,0.0644979476928711,0.473439693450928,0.0199210643768311,0.47822795547459
0.449577621,0.0150127410888672,0.482920587062836,-0.0165905952453613,0.483438645181279
0.454577621,-0.0436477661132813,0.51282149553299,-0.08653724193573,0.521900093896538
0.459577621,-0.0938320159912109,0.522529900074005,-0.150417327880859,0.551785570872547
0.464577621,-0.151671409606934,0.522387444972992,-0.23087739944458,0.590929126657214
0.469577621,-0.215636253356934,0.512263894081116,-0.349937438964844,0.65678725789272
0.474577621,-0.309562683105469,0.492808103561401,-0.503079175949097,0.769270783912183
0.479577621,-0.412952423095703,0.460424721240997,-0.671579718589783,0.912984088630023
0.484577621,-0.489148139953613,0.406841814517975,-0.863219261169434,1.07234959678002
0.489577621,-0.581425666809082,0.316389381885529,-1.11274933815002,1.29474674610428
0.494577621,-0.514389038085938,0.191260457038879,-1.26582646369934,1.37967143955772
0.499577621,-0.370859146118164,0.0288552045822144,-1.2795946598053,1.33256580418875
0.504577621,-0.193891525268555,-0.101130247116089,-1.21351075172424,1.23305701206516
0.509577621,-0.154502868652344,-0.204548954963684,-1.08935379981995,1.11910817733617
0.514577621,-0.0918951034545898,-0.264032125473022,-0.898000061511993,0.940511447987889
0.519577621,-0.0530462265014648,-0.289039254188538,-0.771456956863403,0.825532209487222
0.524577621,0.0608377456665039,-0.315727829933167,-0.675060510635376,0.747724539460478
0.529577621,0.171852111816406,-0.309784531593323,-0.645967841148377,0.736732011078755
0.534577621,0.230225563049316,-0.281931757926941,-0.549430251121521,0.659062157050917
0.539577621,0.29277515411377,-0.183861017227173,-0.478150486946106,0.590042416008333
0.544577621,0.364668846130371,-0.0976225137710571,-0.377543449401855,0.533903154813013
0.549577621,0.333481788635254,-0.0592854022979736,-0.359554409980774,0.493967849169987
0.554577621,0.335310935974121,-0.031728982925415,-0.341467022895813,0.479624728164272
0.559577621,0.368059158325195,-0.0388684272766113,-0.286123275756836,0.46780853732679
0.564577621,0.402978897094727,-0.0170152187347412,-0.182939648628235,0.442886468762024
0.569577621,0.472625732421875,0.0404404401779175,-0.0549793243408203,0.477528259115699
0.574577621,0.54632568359375,0.0868716239929199,0.0763407945632935,0.558432044678581
0.579577621,0.610227584838867,0.0709671974182129,0.267454624176025,0.670034345687452
0.584577621,0.641724586486816,0.0749326944351196,0.322212934494019,0.721974049916082
0.589577621,0.610112190246582,0.0710157155990601,0.404554009437561,0.735488995907848
0.594577621,0.574009895324707,0.092739462852478,0.421013832092285,0.717872283009923
0.599577621,0.507416725158691,0.125220537185669,0.3965904712677,0.656076152442821
0.604577621,0.42508602142334,0.198216438293457,0.450157165527344,0.650099496765595
0.609577621,0.327000617980957,0.309818267822266,0.777514576911926,0.898579813120041
0.614577621,0.214946746826172,0.399212121963501,1.05870234966278,1.15170442713191
0.619577621,0.0961360931396484,0.377859950065613,1.04359889030457,1.11405517552438
0.624577621,-0.0610113143920898,0.265278458595276,0.659843564033508,0.713784680470924
0.629577621,-0.213301658630371,0.16178572177887,0.0365744829177856,0.270203460648972
0.634577621,-0.31229305267334,0.110799908638,-0.136862874031067,0.358517805402
0.639577621,-0.355013847351074,0.125864624977112,-0.141299843788147,0.40229638512693
0.644577621,-0.375422477722168,0.128039479255676,-0.125404357910156,0.416007689844761
0.649577621,-0.396452903747559,0.114325165748596,-0.102849841117859,0.425233157492785
0.654577621,-0.395681381225586,0.111677408218384,-0.0905355215072632,0.420989643114359
0.659577621,-0.36700439453125,0.118024349212646,-0.055560827255249,0.389498367310578
0.664577621,-0.326933860778809,0.0964802503585815,-0.0412284135818481,0.343356913603713
0.669577621,-0.269407272338867,0.0897862911224365,-0.0300358533859253,0.285559116386104
0.674577621,-0.216916084289551,0.0698504447937012,0.0018237829208374,0.2278925151152
0.679577621,-0.126334190368652,0.0580394268035889,0.0152727365493774,0.139864788998156
0.684577621,-0.0332193374633789,0.0493972301483154,0.0294373035430908,0.0664090774496948
0.689577621,0.0375051498413086,0.025506854057312,0.0610373020172119,0.0760446454792207
0.694577621,0.0859193801879883,0.0138357877731323,0.0477768182754517,0.0992783625958686
0.699577621,0.133811950683594,-0.00291335582733154,0.0654171705245972,0.148974937447107
0.704577621,0.16230583190918,-0.0149356126785278,0.0645264387130737,0.175299506248038
0.709577621,0.180209159851074,-0.0180325508117676,0.0344479084014893,0.184356102628165
0.714577621,0.183047294616699,-0.0278537273406982,0.0366219282150269,0.188741378132749
0.719577621,0.173473358154297,-0.0114314556121826,0.0473072528839111,0.180171197315677
0.724577621,0.166158676147461,-0.00992870330810547,0.0247055292129517,0.168278483420042
0.729577621,0.153986930847168,-0.00638437271118164,0.0134475231170654,0.154704786495537
0.734577621,0.144105911254883,-0.016433596611023,0.000729203224182129,0.145041747416101
0.739577621,0.114873886108398,-0.0140277147293091,0.00829172134399414,0.11602387311678
0.744577621,0.086761474609375,-0.0264174938201904,-0.00184118747711182,0.0907128845724735
0.749577621,0.0823087692260742,-0.0142686367034912,0.0172063112258911,0.0852900031122616
0.754577621,0.0751714706420898,-0.0249435901641846,-0.000188469886779785,0.0792020720036515
0.759577621,0.0651111602783203,-0.0250817537307739,0.0168142318725586,0.0717723899313968
0.764577621,0.0720415115356445,-0.0266797542572022,0.0344682931900024,0.0842012583456867
0.769577621,0.0674848556518555,-0.0363419055938721,0.0492950677871704,0.0911314630228628
0.774577621,0.0658588409423828,-0.0266717672348022,0.0347601175308228,0.0791014277270528
0.779577621,0.0675497055053711,-0.0345927476882935,0.0757360458374023,0.107217393857403
0.784577621,0.0421466827392578,-0.0412466526031494,0.0841219425201416,0.102733297573136
0.789577621,0.0322380065917969,-0.0437973737716675,0.101022124290466,0.114729981323394
0.794577621,-0.00338459014892578,-0.0448466539382935,0.111892938613892,0.120593148775498
0.799577621,-0.0278987884521484,-0.0420420169830322,0.134095191955566,0.14327384302342
0.804577621,-0.0610618591308594,-0.0415940284729004,0.172500252723694,0.187656470804658
0.809577621,-0.0932779312133789,-0.0273433923721313,0.202724099159241,0.224823250438628
0.814577621,-0.160720825195313,-0.0139214992523193,0.236802816390991,0.286531962691076
0.819577621,-0.940542221069336,-0.0520696640014648,8.21607875823975,8.26990212040757
0.824577621,-0.732259750366211,-0.210940361022949,7.66564655303955,7.70343022646678
0.829577621,-0.618840217590332,-0.398591756820679,0.356810331344605,0.818017246802836
0.834577621,0.0452919006347656,-0.0162215232849121,0.247067809104919,0.251708157151685
0.839577621,-0.328863143920898,-0.170030832290649,-0.482002556324005,0.607772914551039
0.844577621,-0.580098152160645,-0.0947372913360596,0.706773161888123,0.919248237896175
0.849577621,-0.549091339111328,-0.17858350276947,-0.0321013927459717,0.578293926619255
0.854577621,-0.410994529724121,-0.204543709754944,-0.60816216468811,0.761981529449103
0.859577621,-0.214827537536621,-0.285974383354187,-0.0460301637649536,0.360625837669855
0.864577621,-0.00175762176513672,-0.226444005966187,0.257776975631714,0.343116519914324
0.869577621,-1.05378437042236,-0.876213788986206,2.28371953964233,2.66337887637118
0.874577621,-0.899212837219238,-1.27479815483093,3.66341948509216,3.98175041733321
0.879577621,-0.555120468139648,-1.37997663021088,3.56333613395691,3.86132861041879
0.884577621,0.180035591125488,-1.52661180496216,-1.03241920471191,1.85171429528956
0.889577621,0.144820213317871,-1.64217138290405,-4.66118955612183,4.94412659861311
0.894577621,-0.381551742553711,-1.44572067260742,-3.21879935264587,3.54913500279205
0.899577621,1.07378673553467,-0.343938589096069,0.0448884963989258,1.12841777883395
0.904577621,1.45654964447021,-0.224734663963318,-0.202994108200073,1.4876992787378
0.909577621,1.10639667510986,-0.424934029579163,0.0759060382843018,1.18762126068733
0.914577621,1.01605224609375,-0.371051907539368,0.122745156288147,1.088626684531
0.919577621,0.867642402648926,-0.267099499702454,0.266302466392517,0.946077420311065
0.924577621,0.535527229309082,-0.284548044204712,0.401425123214722,0.727254516892225
0.929577621,0.192907333374023,-0.146484613418579,-0.0552411079406738,0.248440256891633
0.934577621,-0.263460159301758,-0.101122856140137,0.12926709651947,0.310398243899382
0.939577621,-0.515640258789063,-0.0162041187286377,0.166134119033813,0.541985235458462
0.944577621,-0.761009216308594,0.0384386777877808,0.00657081604003906,0.762007700013671
0.949577621,-1.08271217346191,0.0817344188690186,-0.0786726474761963,1.08863931182527
0.954577621,-1.20720863342285,0.115565299987793,-0.0663249492645264,1.21453983963758
0.959577621,-1.2457914352417,0.173567056655884,-0.101576209068298,1.26191899483542
0.964577621,-1.22741889953613,0.147351026535034,-0.147874712944031,1.2450447424441
0.969577621,-1.08736133575439,0.121639251708984,-0.130045294761658,1.10184507111461
0.974577621,-0.809327125549316,0.0834836959838867,-0.033519983291626,0.814311680454677
0.979577621,-0.505702972412109,0.0183483362197876,-0.0965675115585327,0.515167392249436
0.984577621,-0.178481101989746,-0.0512397289276123,-0.0414695739746094,0.190264918347248
0.989577621,0.175085067749023,-0.0914250612258911,-0.0736047029495239,0.210786562819184
0.994577621,0.47532844543457,-0.129320025444031,-0.072933554649353,0.497976006865672
0.999577621,0.687397956848145,-0.189442753791809,-0.0680029392242432,0.71626036312668
1.004577621,0.891565322875977,-0.218076467514038,-0.111835122108459,0.924636774725816
1.009577621,0.993542671203613,-0.247794270515442,-0.119659423828125,1.03094491497537
1.014577621,1.04891490936279,-0.224725365638733,-0.200925230979919,1.09137295435124
1.019577621,0.978853225708008,-0.228703498840332,-0.223825573921204,1.02983339206006
1.024577621,0.865533828735352,-0.218159198760986,-0.21071320772171,0.917138103339778
1.029577621,0.665309906005859,-0.195809841156006,-0.246776103973389,0.736123094608063
1.034577621,0.470335960388184,-0.152354001998901,-0.278447866439819,0.567415960195203
1.039577621,0.201096534729004,-0.103217363357544,-0.3054438829422,0.379986323445075
1.044577621,-0.0703535079956055,-0.069930911064148,-0.294736564159393,0.310981656471943
1.049577621,-0.312464714050293,-0.0249395370483398,-0.289214015007019,0.426498446082981
1.054577621,-0.521235466003418,0.0235929489135742,-0.322739064693451,0.61351735275984
1.059577621,-0.65694522857666,0.055652379989624,-0.336088120937347,0.740019895532105
1.064577621,-0.74583911895752,0.0735359191894531,-0.294733107089996,0.805326720774426
1.069577621,-0.782390594482422,0.0782343149185181,-0.284554481506348,0.836197885258432
1.074577621,-0.746867179870606,0.0572853088378906,-0.23060131072998,0.783753249107721
1.079577621,-0.638989448547363,0.0479438304901123,-0.194823741912842,0.669748024745015
1.084577621,-0.488242149353027,0.0162789821624756,-0.10642683506012,0.499972072106057
1.089577621,-0.315754890441895,-0.0183259248733521,-0.0274579524993897,0.317475872336616
1.094577621,-0.116347312927246,-0.0470215082168579,0.0567742586135864,0.137735383622005
1.099577621,0.0710887908935547,-0.092382550239563,0.151098132133484,0.190837096272451
1.104577621,0.241994857788086,-0.105804204940796,0.21666157245636,0.341611296590573
1.109577621,0.363503456115723,-0.135354399681091,0.292873620986939,0.48603552749887
1.114577621,0.442302703857422,-0.140694856643677,0.340456604957581,0.575619166102739
1.119577621,0.474983215332031,-0.13598906993866,0.372602820396423,0.618817375125574
1.124577621,0.444494247436523,-0.130340814590454,0.405913352966309,0.615897324290839
1.129577621,0.356575012207031,-0.109630703926086,0.392792105674744,0.541710502809548
1.134577621,0.244660377502441,-0.10683262348175,0.391917109489441,0.474205578278228
1.139577621,0.116291046142578,-0.0651726722717285,0.346587061882019,0.371340377669846
1.144577621,-0.0441513061523438,-0.041964054107666,0.283077120780945,0.289556516040891
1.149577621,-0.21480655670166,-0.0214962959289551,0.262301445007324,0.339714579601199
1.154577621,-0.348996162414551,0.0247917175292969,0.198650479316711,0.402336878213886
1.159577621,-0.443729400634766,0.0412850379943848,0.151570677757263,0.470716375013322
1.164577621,-0.470019340515137,0.05043625831604,0.12594997882843,0.489208946952208
1.169577621,-0.495261192321777,0.0536444187164307,0.103510499000549,0.508798384119638
1.174577621,-0.463779449462891,0.0275707244873047,0.09791100025177,0.474803208248595
1.179577621,-0.370244979858398,0.0150798559188843,0.0969041585922241,0.383013267547414
1.184577621,-0.23650074005127,0.0150752067565918,0.0733294486999512,0.248066664326731
1.189577621,-0.0830001831054688,-0.0283819437026978,0.0596605539321899,0.106084621031421
1.194577621,0.0832033157348633,-0.0609418153762817,0.0733972787857056,0.12658537492056
1.199577621,0.239022254943848,-0.0958578586578369,0.0414367914199829,0.260839749862038
1.204577621,0.401251792907715,-0.119328141212463,0.0344940423965454,0.42003814774105
1.209577621,0.505353927612305,-0.124643564224243,0.0133907794952393,0.52067064756062
1.214577621,0.563815116882324,-0.151426672935486,-0.00876080989837647,0.583861520475031
1.219577621,0.571767807006836,-0.150684952735901,-0.0312963724136353,0.592118098893017
1.224577621,0.562548637390137,-0.140119671821594,-0.0817012786865234,0.585465277194048
1.229577621,0.466068267822266,-0.122406005859375,-0.116032123565674,0.495647368842459
1.234577621,0.333128929138184,-0.113457918167114,-0.142072916030884,0.379515870673529
1.239577621,0.192448616027832,-0.0803275108337402,-0.170970678329468,0.26966637101465
1.244577621,-0.00215530395507813,-0.0391010046005249,-0.194877624511719,0.198773294059437
1.249577621,-0.169318199157715,-0.0120115280151367,-0.203359007835388,0.264892082628121
1.254577621,-0.35355281829834,0.00340938568115234,-0.222593188285828,0.417802521185155
1.259577621,-0.497614860534668,0.040776252746582,-0.223867893218994,0.547174639239888
1.264577621,-0.605623245239258,0.0651870965957642,-0.221110463142395,0.648011349937453
1.269577621,-0.682315826416016,0.0870777368545532,-0.215937376022339,0.720948243355162
1.274577621,-0.701997756958008,0.0810883045196533,-0.196849346160889,0.733570602592495
1.279577621,-0.690812110900879,0.0835033655166626,-0.15060567855835,0.711952424698419
1.284577621,-0.608035087585449,0.0643415451049805,-0.117073774337769,0.622537364982402
1.289577621,-0.494836807250977,0.0437365770339966,-0.0710835456848145,0.501825890571736
1.294577621,-0.352329254150391,0.0168765783309937,-0.00759124755859375,0.352814893769847
1.299577621,-0.198636054992676,-0.014847993850708,0.057162880897522,0.207230162420793
1.304577621,-0.0298738479614258,-0.0315366983413696,0.118192195892334,0.125922219263118
1.309577621,0.142622947692871,-0.0663373470306397,0.156526684761047,0.221906628702144
1.314577621,0.275951385498047,-0.0915383100509644,0.221658229827881,0.365596499184152
1.319577621,0.364341735839844,-0.10627555847168,0.301809072494507,0.484900104189773
1.324577621,0.42893123626709,-0.128848314285278,0.327191948890686,0.554651660917604
1.329577621,0.466387748718262,-0.117153882980347,0.323258280754089,0.579429443960135
1.334577621,0.452829360961914,-0.134953022003174,0.343933463096619,0.584428759845542
1.339577621,0.392923355102539,-0.111626744270325,0.320484161376953,0.519191092676788
1.344577621,0.302883148193359,-0.0969309806823731,0.328625082969666,0.457305435822041
1.349577621,0.204584121704102,-0.0855545997619629,0.299357891082764,0.372544493111075
1.354577621,0.0952939987182617,-0.0677058696746826,0.26533579826355,0.28994502378947
1.359577621,0.00582981109619141,-0.0533559322357178,0.23493754863739,0.24099065119192
1.364577621,-0.10081958770752,-0.0348607301712036,0.176913261413574,0.206586935302239
1.369577621,-0.173911094665527,-0.025439977645874,0.1561439037323,0.235102488253839
1.374577621,-0.217647552490234,-0.0146334171295166,0.105835914611816,0.242457903198876
1.379577621,-0.245135307312012,-0.0175952911376953,0.0834330320358276,0.259541873299601
1.384577621,-0.227426528930664,-0.0107254981994629,0.0506536960601807,0.233245920216483
1.389577621,-0.168878555297852,-0.0305502414703369,0.00484490394592285,0.171687963432591
1.394577621,-0.112239837646484,-0.0399901866912842,0.00804579257965088,0.119422489359198
1.399577621,-0.0422496795654297,-0.0436087846755981,-0.0280412435531616,0.0668810351614858
1.404577621,0.0384979248046875,-0.0608270168304443,-0.0374152660369873,0.0811290226945762
1.409577621,0.109345436096191,-0.073083758354187,-0.0674357414245606,0.147801350980699
1.414577621,0.15857982635498,-0.0766968727111816,-0.0831749439239502,0.194802574180125
1.419577621,0.191006660461426,-0.0876901149749756,-0.0964763164520264,0.231259119260414
1.424577621,0.184297561645508,-0.10068666934967,-0.129186272621155,0.246561330396632
1.429577621,0.181130409240723,-0.0833351612091065,-0.147258162498474,0.24786678008133
1.434577621,0.131584167480469,-0.0713368654251099,-0.198041081428528,0.248241034951092
1.439577621,0.0613164901733398,-0.0596951246261597,-0.218685567378998,0.234833126392305
1.444577621,-0.0182304382324219,-0.0476139783859253,-0.213565409183502,0.219566900546504
1.449577621,-0.102422714233398,-0.0359628200531006,-0.242369592189789,0.265568740696929
1.454577621,-0.209632873535156,-0.0182803869247437,-0.261903285980225,0.335966434960346
1.459577621,-0.304086685180664,-0.00143122673034668,-0.268203675746918,0.405467596976967
1.464577621,-0.389410018920898,0.0114536285400391,-0.264058828353882,0.470636179308744
1.469577621,-0.439201354980469,0.0221368074417114,-0.262929916381836,0.51236706509001
1.474577621,-0.456790924072266,0.0346214771270752,-0.252574861049652,0.523116292450834
1.479577621,-0.428841590881348,0.0367249250411987,-0.233375549316406,0.48961002564047
1.484577621,-0.402247428894043,0.0251204967498779,-0.200750470161438,0.450260796293512
1.489577621,-0.310275077819824,0.00785207748413086,-0.156240105628967,0.347481293948128
1.494577621,-0.201559066772461,-0.00415635108947754,-0.122243165969849,0.235768369971242
1.499577621,-0.0728569030761719,-0.0175091028213501,-0.0874952077865601,0.115195956496192
1.504577621,0.039729118347168,-0.0386316776275635,-0.00753951072692871,0.0559254287687161
1.509577621,0.166752815246582,-0.0687795877456665,0.0777727365493774,0.196432511650957
1.514577621,0.293974876403809,-0.0741466283798218,0.130136966705322,0.329931175489665
1.519577621,0.383458137512207,-0.0911647081375122,0.176381468772888,0.431811961113411
1.524577621,0.462863922119141,-0.0939755439758301,0.171206474304199,0.502380403786555
1.529577621,0.478446960449219,-0.0665634870529175,0.188766598701477,0.518628017520327
1.534577621,0.482295989990234,-0.0764411687850952,0.248059868812561,0.547710117453746
1.539577621,0.46112060546875,-0.0367521047592163,0.182389855384827,0.497241379351515
1.544577621,0.439001083374023,-0.0291774272918701,0.12525999546051,0.457453101344505
1.549577621,0.372159004211426,-0.0253111124038696,0.0747896432876587,0.380442462890063
1.554577621,0.261951446533203,-0.00100219249725342,0.0239009857177734,0.263041483133213
1.559577621,0.118698120117188,0.0257219076156616,-0.017387866973877,0.122691475533731
1.564577621,-0.0290155410766602,0.0354833602905273,-0.0374312400817871,0.0591782748611271
1.569577621,-0.171632766723633,0.0422846078872681,-0.0391478538513184,0.18104791945381
1.574577621,-0.216695785522461,0.0687046051025391,-0.102054238319397,0.249183574467589
1.579577621,-0.256693840026855,0.0688334703445435,-0.149719715118408,0.305034042760055
1.584577621,-0.283945083618164,0.0640271902084351,-0.168038487434387,0.336097046782845
1.589577621,-0.062006950378418,0.0408551692962647,-1.07278287410736,1.07534975786091
1.594577621,-0.33983325958252,0.319182515144348,-0.633607149124146,0.786652491074413
1.599577621,-0.728592872619629,0.878212988376617,1.95524406433105,2.26386505297629
1.604577621,-0.45639705657959,0.456463932991028,2.35812044143677,2.44487006028911
1.609577621,-0.326294898986816,0.248240947723389,1.22288143634796,1.28977941392933
1.614577621,-0.418146133422852,0.0727434158325195,0.0965858697891235,0.435277639773037
1.619577621,-0.287643432617188,0.0620317459106445,-0.224983215332031,0.370410757146253
1.624577621,-0.139642715454102,0.0586806535720825,-0.125035166740417,0.196411048581402
1.629577621,-0.0684499740600586,0.0318121910095215,-0.199821591377258,0.213602628322287
1.634577621,0.0249366760253906,-0.0196839570999146,-0.0982719659805298,0.103279597578539
1.639577621,0.103959083557129,-0.0323834419250488,-0.0987406969070435,0.146989467618057
1.644577621,0.203244209289551,-0.0522284507751465,-0.0479426383972168,0.215254538294998
1.649577621,0.355808258056641,-0.060250997543335,0.0235048532485962,0.361638185666981
1.654577621,0.440802574157715,-0.0883404016494751,0.0674128532409668,0.454593696315453
1.659577621,0.438791275024414,-0.0788544416427612,0.0866810083389282,0.454168914844462
1.664577621,0.44879150390625,-0.0727449655532837,0.149003982543945,0.478443132258933
1.669577621,0.385233879089355,-0.0744905471801758,0.174604296684265,0.429465532537876
1.674577621,0.282386779785156,-0.0784329175949097,0.202445507049561,0.356199662106007
1.679577621,0.185352325439453,-0.059359073638916,0.207680463790894,0.284622836767333
1.684577621,0.0822944641113281,-0.0290830135345459,0.190968751907349,0.209969675678827
1.689577621,-0.0479001998901367,-0.0136898756027222,0.174227714538574,0.181210204891634
1.694577621,-0.153768539428711,0.013414740562439,0.139500141143799,0.208050494739946
1.699577621,-0.248072624206543,0.0380963087081909,0.134790182113647,0.284885501231882
1.704577621,-0.338503837585449,0.0540260076522827,0.0962553024291992,0.356045981312326
1.709577621,-0.411237716674805,0.0554057359695435,0.0835772752761841,0.423286446908975
1.714577621,-0.432868957519531,0.0686839818954468,0.0684610605239868,0.443598850946583
1.719577621,-0.382976531982422,0.0595524311065674,0.0205206871032715,0.388121907007548
1.724577621,-0.352276802062988,0.0564647912979126,0.0455118417739868,0.359664490420869
1.729577621,-0.264701843261719,0.0437442064285278,0.0340647697448731,0.270445983442137
1.734577621,-0.162736892700195,0.0225423574447632,0.0437767505645752,0.170023110237624
1.739577621,-0.0807952880859375,0.00757622718811035,0.0378456115722656,0.0895408739658839
1.744577621,0.0177392959594727,-0.019949197769165,0.0261310338973999,0.0373561781412136
1.749577621,0.115764617919922,-0.0287008285522461,0.0263237953186035,0.122139782715161
1.754577621,0.209271430969238,-0.0421574115753174,0.00585103034973145,0.21355564550439
1.759577621,0.270581245422363,-0.056310772895813,-0.00757443904876709,0.276482342375322
1.764577621,0.309359550476074,-0.0621718168258667,-0.0320342779159546,0.317166929612443
1.769577621,0.307164192199707,-0.0691704750061035,-0.041714072227478,0.317607398219985
1.774577621,0.286881446838379,-0.0665938854217529,-0.0546563863754272,0.299538028783103
1.779577621,0.246190071105957,-0.0633958578109741,-0.0475903749465942,0.258637641665522
1.784577621,0.18013858795166,-0.0364881753921509,-0.0638761520385742,0.194580216393963
1.789577621,0.0993623733520508,-0.0199400186538696,-0.0733201503753662,0.125085291034299
1.794577621,0.00984096527099609,-0.00672507286071777,-0.0853747129440308,0.0862027424895668
1.799577621,-0.065739631652832,0.00959229469299316,-0.107116341590881,0.126046110305482
1.804577621,-0.136930465698242,0.0152508020401001,-0.109596371650696,0.176050856510842
1.809577621,-0.195090293884277,0.037257194519043,-0.104596376419067,0.224474326530414
1.814577621,-0.236125946044922,0.0411108732223511,-0.089678168296814,0.255905725144603
1.819577621,-0.251214027404785,0.0478955507278442,-0.0670802593231201,0.264390303406371
1.824577621,-0.242929458618164,0.0430212020874023,-0.0338753461837769,0.249024265429356
1.829577621,-0.207717895507813,0.0430034399032593,0.0408593416213989,0.216022002942853
1.834577621,-0.164311408996582,0.0307776927947998,0.0940669775009155,0.191817886956277
1.839577621,-0.101325035095215,0.0296549797058105,0.169697880744934,0.199858828395746
1.844577621,-0.028376579284668,0.0344382524490356,0.24092173576355,0.245019399735948
1.849577621,0.0311365127563477,0.0262595415115356,0.333646059036255,0.336123100451972
1.854577621,0.0771846771240234,0.0116751194000244,0.475298166275024,0.481665993879727
1.859577621,0.101430892944336,0.00901603698730469,0.58877968788147,0.597520740918876
1.864577621,0.0856590270996094,0.0241587162017822,0.673215746879578,0.679073305570759
1.869577621,0.0848350524902344,0.0274498462677002,0.593945860862732,0.600601503350693
1.874577621,0.0516948699951172,0.0245174169540405,0.468167901039124,0.471650979943103
1.879577621,0.0209217071533203,0.0205507278442383,0.327505469322205,0.328815879606041
1.884577621,-0.00373935699462891,0.0211112499237061,0.224977254867554,0.22599653287565
1.889577621,-0.0519943237304688,0.0341504812240601,0.172194957733154,0.183086778705472
1.894577621,-0.0687999725341797,0.0160214900970459,0.106867551803589,0.128104636895494
1.899577621,-0.104991912841797,0.0392042398452759,0.0765985250473023,0.13574832677955
1.904577621,-0.134551048278809,0.0372508764266968,0.0216550827026367,0.141281828252402
1.909577621,-0.140481948852539,0.0384311676025391,-0.0259517431259155,0.147937911192417
1.914577621,-0.148547172546387,0.0316381454467773,-0.0345450639724731,0.155758133539471
1.919577621,-0.132813453674316,0.0341789722442627,-0.0328308343887329,0.141015883173614
1.924577621,-0.106456756591797,0.0159393548965454,-0.0372058153152466,0.113891952094234
1.929577621,-0.0789279937744141,0.0172042846679688,-0.0385899543762207,0.0895254164522525
1.934577621,-0.0319299697875977,0.0117155313491821,-0.0617787837982178,0.0705222998279091
1.939577621,0.0282630920410156,0.00430798530578613,-0.0523618459701538,0.0596583944010891
1.944577621,0.071537971496582,-0.00742495059967041,-0.0408921241760254,0.0827343766331796
1.949577621,0.115196228027344,-0.024796724319458,-0.0505101680755615,0.12820423381357
1.954577621,0.156200408935547,-0.0245482921600342,-0.0479289293289185,0.165222179704248
1.959577621,0.18424129486084,-0.0260714292526245,-0.0533318519592285,0.193568748998062
1.964577621,0.195064544677734,-0.0301016569137573,-0.0620397329330444,0.206894211619583
1.969577621,0.182504653930664,-0.0213981866836548,-0.058927059173584,0.192972094880444
1.974577621,0.159671783447266,-0.029373049736023,-0.0735412836074829,0.178230678825677
1.979577621,0.129115104675293,-0.0240131616592407,-0.0759520530700684,0.151710436535339
1.984577621,0.0868082046508789,-0.00767755508422852,-0.0946186780929565,0.128636322595287
1.989577621,0.0306253433227539,-0.0144702196121216,-0.104920506477356,0.110252490170175
1.994577621,-0.0172901153564453,0.0117257833480835,-0.122355341911316,0.124126031832168
1.999577621,-0.0535259246826172,0.0225774049758911,-0.119000196456909,0.132422847671229
2.004577621,-0.103758811950684,0.0362548828125,-0.118600964546204,0.16169878285397
2.009577621,-0.140755653381348,0.0337314605712891,-0.129029035568237,0.193903216607544
2.014577621,-0.160914421081543,0.037335991859436,-0.114933490753174,0.201238998449222
2.019577621,-0.172910690307617,0.032119631767273,-0.123248219490051,0.21475544504154
2.024577621,-0.159849166870117,0.0269356966018677,-0.105995178222656,0.193680834640269
2.029577621,-0.137185096740723,0.0257411003112793,-0.0996675491333008,0.171510860773409
2.034577621,-0.10828685760498,0.0230758190155029,-0.104888558387756,0.152512775313609
2.039577621,-0.0780029296875,0.0238494873046875,-0.0766899585723877,0.111958049421933
2.044577621,-0.0408344268798828,0.0127829313278198,-0.0485626459121704,0.0647239084877535
2.049577621,0.00375652313232422,-0.00135314464569092,-0.054313063621521,0.054459630428706
2.054577621,0.0463266372680664,-0.0067133903503418,-0.0398986339569092,0.0615071371646453
2.059577621,0.0719776153564453,-0.0158311128616333,-0.0466123819351196,0.0872015790940946
2.064577621,0.103558540344238,-0.0118927955627441,-0.0160934925079346,0.105474216591684
2.069577621,0.122307777404785,-0.00627005100250244,-0.00370407104492188,0.122524389798841
2.074577621,0.121465682983398,-0.0225421190261841,-0.00996267795562744,0.123940769018357
2.079577621,0.116815567016602,-0.017031192779541,-0.0149286985397339,0.118990773865011
2.084577621,0.104213714599609,-0.00942623615264893,-0.0117372274398804,0.105295369065452
2.089577621,0.0813302993774414,-0.00202906131744385,-0.018943190574646,0.0835319050171942
2.094577621,0.047541618347168,0.00611197948455811,-0.029647707939148,0.056360876096211
2.099577621,0.0364933013916016,0.00216984748840332,-0.0336490869522095,0.0496863194179097
2.104577621,0.0122480392456055,0.0153155326843262,-0.0521910190582275,0.0557537664835554
2.109577621,-0.0119733810424805,0.0140378475189209,-0.048328161239624,0.0517303990450103
2.114577621,-0.0203046798706055,0.0124163627624512,-0.0627480745315552,0.0671101106116966
2.119577621,-0.028411865234375,0.0193475484848022,-0.0693603754043579,0.0774107446980167
2.124577621,-0.0214624404907227,0.0159592628479004,-0.0818672180175781,0.0861253493949595
2.129577621,-0.0251436233520508,0.00521421432495117,-0.0859906673431397,0.0897428810347363
2.134577621,-0.00159740447998047,-0.00235044956207275,-0.10727596282959,0.107313598929642
2.139577621,0.0109748840332031,0.00746333599090576,-0.129812836647034,0.130489547558434
2.144577621,0.0417776107788086,0.0162323713302612,-0.146851181983948,0.153538686628067
2.149577621,0.0629291534423828,0.0165385007858276,-0.155898094177246,0.16893139474152
2.154577621,0.0659198760986328,0.0210962295532227,-0.177305698394775,0.190335996725476
2.159577621,0.0658931732177734,0.0255450010299683,-0.180678725242615,0.194008399585237
2.164577621,0.0826225280761719,0.0205296277999878,-0.192579865455627,0.210558667221778
2.169577621,0.0690174102783203,0.0288742780685425,-0.200013756752014,0.213547722407801
2.174577621,0.069849967956543,0.0400354862213135,-0.197849154472351,0.21360277644715
2.179577621,0.0551490783691406,0.0490635633468628,-0.223689079284668,0.23555351469354
2.184577621,0.056706428527832,0.0395550727844238,-0.236953258514404,0.246834093147517
2.189577621,0.0434207916259766,0.0478807687759399,-0.23573100566864,0.244432076858889
2.194577621,0.0194635391235352,0.048487663269043,-0.229265689849854,0.23514386954976
2.199577621,0.00421714782714844,0.053266167640686,-0.236533403396606,0.242493546044639
2.204577621,-0.01556396484375,0.0580136775970459,-0.226517915725708,0.234346303437264
2.209577621,-0.0346622467041016,0.0552788972854614,-0.225800514221191,0.235038507598706
2.214577621,-0.0478849411010742,0.0582082271575928,-0.231005668640137,0.242991325435621
2.219577621,-0.0594196319580078,0.0727298259735107,-0.219051718711853,0.238335846483023
2.224577621,-0.074127197265625,0.0878076553344727,-0.157056927680969,0.194607050854741
2.229577621,-0.08868408203125,0.142863154411316,0.207574963569641,0.267136880259942
2.234577621,-0.0755491256713867,0.146915674209595,0.510685682296753,0.536741792504618
2.239577621,-0.0574064254760742,0.095687747001648,0.385542392730713,0.401365891929938
2.244577621,-0.0352497100830078,0.0496869087219238,-0.0171871185302734,0.0632987203871497
2.249577621,-0.0527687072753906,0.0442415475845337,-0.183754920959473,0.196233845136389
2.254577621,-0.0441341400146484,0.0429917573928833,-0.141439318656921,0.154276357166921
2.259577621,-0.0123472213745117,0.0355744361877441,-0.109781384468079,0.11606009978229
2.264577621,-0.0130329132080078,0.0250916481018066,-0.0897526741027832,0.0941009571670383
2.269577621,-0.0162973403930664,0.026610255241394,-0.067706823348999,0.0745514782946131
2.274577621,-0.00526905059814453,0.0139542818069458,-0.056185245513916,0.0581314604015114
2.279577621,0.0173711776733398,0.0224483013153076,-0.00585269927978516,0.028981686192511
2.284577621,0.0252447128295898,0.0100367069244385,0.00808036327362061,0.0283429582501405
2.289577621,0.028355598449707,-0.00161600112915039,0.0367656946182251,0.0464582363402985
2.294577621,0.00482845306396484,0.00247561931610107,0.0447771549224854,0.0451047253948122
2.299577621,0.00469684600830078,0.0212361812591553,0.0742874145507813,0.0774057860727285
2.304577621,0.00769233703613281,0.0181432962417603,0.101263165473938,0.103162880579188
2.309577621,0.00650119781494141,0.0045093297958374,0.125536561012268,0.125785642181544
2.314577621,-0.00587558746337891,0.0112318992614746,0.154490351676941,0.155009505677312
2.319577621,-0.0170354843139648,0.0167385339736938,0.230174422264099,0.231410135711493
2.324577621,-0.920999526977539,-0.000512123107910156,6.40201663970947,6.4679252814237
2.329577621,-0.167354583740234,-0.0491949319839478,1.03642451763153,1.05100117924745
2.334577621,0.104403495788574,0.00559091567993164,0.252689480781555,0.273465394462749
2.339577621,0.00967121124267578,-0.0185369253158569,0.0704052448272705,0.0734441857893055
2.344577621,-0.00887489318847656,-0.0162622928619385,0.00591814517974854,0.0194486590952411
2.349577621,-0.0333356857299805,-0.0408852100372314,-0.0774160623550415,0.0936809215018524
2.354577621,0.0579614639282227,-0.031190037727356,-0.00122654438018799,0.0658320147439915
2.359577621,0.020543098449707,-0.0451613664627075,-0.0475951433181763,0.0687522041986368
2.364577621,0.0453500747680664,-0.01932692527771,-0.112215638160706,0.122566344360815
2.369577621,0.060734748840332,-0.0292947292327881,-0.0842186212539673,0.107887288609177
2.374577621,0.0778846740722656,-0.0143419504165649,-0.0629994869232178,0.101196093549519
2.379577621,0.0597124099731445,-0.0330017805099487,-0.091259241104126,0.113942698355484
2.384577621,0.0549221038818359,-0.0310976505279541,-0.111000537872314,0.127689548402009
2.389577621,0.0411224365234375,-0.0235998630523682,-0.0573862791061401,0.0744391923072953
2.394577621,0.0357246398925781,-0.0179734230041504,-0.0584375858306885,0.0708113357285371
2.399577621,0.0313224792480469,-0.0189056396484375,-0.0856910943984985,0.0931744845758391
2.404577621,0.0140523910522461,-0.0181641578674316,-0.0861868858337402,0.0891940895745699
2.409577621,-0.0242958068847656,-0.0069807767868042,-0.0432476997375488,0.0500937222545719
2.414577621,-0.0453052520751953,0.000271916389465332,-0.0522702932357788,0.0691724176176759
2.419577621,-0.060948371887207,-0.0122834444046021,-0.066362738609314,0.0909373417132388
2.424577621,-0.0616493225097656,0.0141440629959106,-0.0467725992202759,0.0786661904617602
2.429577621,-0.0798587799072266,0.00935769081115723,-0.021919846534729,0.0833394911053226
2.434577621,-0.0936355590820313,0.0193287134170532,-0.0103434324264526,0.0961675812388132
2.439577621,-0.0983715057373047,0.00727033615112305,-0.00186192989349365,0.0986573753538132
2.444577621,-0.102749824523926,0.00376760959625244,0.018476128578186,0.104465729543257
2.449577621,-0.0879459381103516,-0.00439417362213135,0.0421950817108154,0.0976433393146384
2.454577621,-0.0738239288330078,-0.0128521919250488,0.0455597639083862,0.0876974537430089
2.459577621,-0.0630350112915039,-0.0000429153442382813,0.0487464666366577,0.0796845813178784
2.464577621,-0.0428066253662109,-0.0011136531829834,0.0655621290206909,0.0783073442301603
2.469577621,-0.011810302734375,-0.0103414058685303,0.0657035112380981,0.0675527890988237
2.474577621,0.00996208190917969,-0.0122295618057251,0.0566495656967163,0.0588045793416791
2.479577621,0.00491142272949219,-0.00819742679595947,0.0746701955795288,0.0752792002294656
2.484577621,0.0322074890136719,-0.0109363794326782,0.0661104917526245,0.0743473191408751
2.489577621,0.0332632064819336,-0.0207463502883911,0.0515577793121338,0.0647692563130616
2.494577621,0.0566692352294922,-0.01255202293396,0.0356515645980835,0.0681174688279115
2.499577621,0.0604095458984375,-0.0205845832824707,0.037967324256897,0.0742600566643789
2.504577621,0.0629739761352539,-0.0261745452880859,0.0214462280273438,0.0714896439207975
2.509577621,0.0573520660400391,-0.0269553661346436,0.0335074663162231,0.0716840396563037
2.514577621,0.0632333755493164,-0.0145177841186523,-0.00976371765136719,0.0656091153838573
2.519577621,0.0565404891967773,-0.0208370685577393,-0.0179383754730225,0.0628712625871467
2.524577621,0.0629701614379883,-0.00800168514251709,-0.0260752439498901,0.0686235130526889
2.529577621,0.0466165542602539,-0.0152158737182617,-0.0449997186660767,0.0665552449032782
2.534577621,0.0328330993652344,-0.0145020484924316,-0.0495665073394775,0.0611977162501892
2.539577621,0.0441007614135742,-0.00381195545196533,-0.0685255527496338,0.0815791611949253
2.544577621,0.0372915267944336,-0.0138956308364868,-0.0849289894104004,0.0937906166376775
2.549577621,0.0335254669189453,-0.0157499313354492,-0.0873410701751709,0.0948708585844399
2.554577621,0.0261058807373047,-0.0175786018371582,-0.112055540084839,0.116391444339026
2.559577621,0.00884628295898438,-0.00822067260742188,-0.113702535629272,0.114342042962485
2.564577621,0.0103292465209961,0.00176668167114258,-0.115634441375732,0.116108305172784
2.569577621,0.000924110412597656,-0.00693929195404053,-0.124099969863892,0.124297265750687
2.574577621,0.00120162963867188,-0.00666952133178711,-0.125476598739624,0.125659473418634
2.579577621,0.00808334350585938,0.00277256965637207,-0.137531280517578,0.137796519206901
2.584577621,-0.00233364105224609,-0.00119054317474365,-0.135364532470703,0.135389881175159
2.589577621,-0.0252599716186523,-0.00545668601989746,-0.138308644294739,0.140702248294558
2.594577621,-0.0371923446655273,-0.00585722923278809,-0.142743349075317,0.147625341121512
2.599577621,-0.0332822799682617,-0.0108544826507568,-0.147971153259277,0.15205588495807
2.604577621,-0.0388822555541992,-0.00771772861480713,-0.128335237503052,0.13431800444065
2.609577621,-0.0343341827392578,-0.0134800672531128,-0.118247032165527,0.123866496412373
2.614577621,-0.0413217544555664,-0.0109243392944336,-0.0913947820663452,0.100895167224505
2.619577621,-0.0417490005493164,-0.00718247890472412,-0.0906521081924439,0.100061839728331
2.624577621,-0.0531759262084961,-0.0118519067764282,-0.108935713768005,0.121799575354405
2.629577621,-0.0468473434448242,-0.00683295726776123,-0.0777590274810791,0.0910375156057303
2.634577621,-0.0326642990112305,-0.00585770606994629,-0.0596503019332886,0.068260000520286
2.639577621,-0.0265750885009766,-0.0250993967056274,-0.0590670108795166,0.0694631327976368
2.644577621,-0.0245037078857422,-0.0167340040206909,-0.0453274250030518,0.0541759545197089
2.649577621,-0.0100183486938477,-0.0167003870010376,-0.0512182712554932,0.0547958168744405
2.654577621,0.0112648010253906,-0.0312135219573975,-0.0514775514602661,0.0612463713167639
2.659577621,0.0184946060180664,-0.0477709770202637,-0.030803918838501,0.059774560751569
2.664577621,0.0286388397216797,-0.0290060043334961,-0.0224771499633789,0.046548401674763
2.669577621,0.0360660552978516,-0.0460014343261719,-0.0228968858718872,0.0627786563048543
2.674577621,0.0429849624633789,-0.0458648204803467,-0.0117729902267456,0.0639522638735453
2.679577621,0.0477619171142578,-0.0419740676879883,-0.0171798467636108,0.065864787402118
2.684577621,0.0552120208740234,-0.0454498529434204,-0.0208621025085449,0.0744935145005871
2.689577621,0.0662145614624023,-0.0483814477920532,-0.0193717479705811,0.0842638550005229
2.694577621,0.0512685775756836,-0.0373721122741699,-0.030930757522583,0.0705822469420454
2.699577621,0.0474081039428711,-0.0360991954803467,-0.0274914503097534,0.0656236243583055
2.704577621,0.0357913970947266,-0.0279812812805176,-0.0366145372390747,0.0583489549634219
2.709577621,0.0302219390869141,-0.0263049602508545,-0.0526760816574097,0.0661822190225613
2.714577621,0.0182113647460938,-0.0356296300888062,-0.0686018466949463,0.0794187491473981
2.719577621,0.0140876770019531,-0.026127815246582,-0.0690120458602905,0.0751251478979824
2.724577621,-0.00281429290771484,-0.0260015726089478,-0.0687510967254639,0.0735575646936662
2.729577621,-0.00617313385009766,-0.0188170671463013,-0.0730245113372803,0.0756622022780741
2.734577621,-0.0061492919921875,-0.0241152048110962,-0.0899566411972046,0.0933357069431035
2.739577621,-0.00928974151611328,-0.0263200998306274,-0.0999208688735962,0.103745973362752
2.744577621,-0.00598335266113281,-0.011156439781189,-0.11033046245575,0.111054390293038
2.749577621,-0.0073394775390625,-0.0251685380935669,-0.124755263328552,0.127480190494406
2.754577621,-0.00690650939941406,-0.0282330513000488,-0.107582211494446,0.111439388403881
2.759577621,-0.00486660003662109,-0.0292986631393433,-0.114492058753967,0.118281558052771
2.764577621,-0.00251865386962891,-0.0179958343505859,-0.113500475883484,0.114945864201658
2.769577621,-0.00587558746337891,-0.027205228805542,-0.110130190849304,0.113592719568227
2.774577621,0.0112123489379883,-0.0333671569824219,-0.119325280189514,0.124409028716178
2.779577621,-0.0152015686035156,-0.0176066160202026,-0.120177149772644,0.122407630248963
2.784577621,-0.0302562713623047,-0.0168600082397461,-0.122581958770752,0.127381468238783
2.789577621,-0.0284252166748047,0.00926637649536133,-0.099634051322937,0.104023088107328
2.794577621,-0.0282611846923828,0.0102912187576294,-0.101475358009338,0.10583880208533
2.799577621,-0.0389032363891602,0.000767827033996582,-0.0935803651809692,0.101347600402321
2.804577621,-0.0102252960205078,0.00954365730285645,-0.087800145149231,0.088907275077169
2.809577621,0.0100688934326172,0.00903880596160889,-0.0671553611755371,0.0685049280182518
2.814577621,0.0363864898681641,0.00589549541473389,-0.0506939888000488,0.0626786567466999
2.819577621,0.0450315475463867,0.0064694881439209,-0.0313194990158081,0.0552322873858038
2.824577621,0.0403156280517578,0.0139309167861938,-0.0109699964523315,0.0440427193742133
2.829577621,0.0293416976928711,0.0211193561553955,-0.00551486015319824,0.0365701532732311
2.834577621,0.0371532440185547,0.0392802953720093,0.0731966495513916,0.0910003002806244
2.839577621,-0.0249357223510742,0.0808939933776856,0.421269774436951,0.429690413283702
2.844577621,0.0217437744140625,0.0436068773269653,0.491278409957886,0.493688998830972
2.849577621,0.0173425674438477,-0.0100107192993164,0.323678970336914,0.324297787511415
2.854577621,0.00488567352294922,-0.000340580940246582,0.0904179811477661,0.0905505224501079
2.859577621,-0.00835323333740234,-0.00348448753356934,0.0434607267379761,0.044393163090207
2.864577621,-0.0105609893798828,0.0016024112701416,0.0518271923065186,0.0529165388223524
2.869577621,-0.0373973846435547,0.015600323677063,0.0604367256164551,0.0727635367491561
2.874577621,-0.0909233093261719,0.00654542446136475,0.243592381477356,0.260090636267459
2.879577621,-0.152400970458984,-0.0211186408996582,0.658830881118774,0.676557597478611
2.884577621,-0.101201057434082,-0.0505660772323608,0.602911114692688,0.613433284402163
2.889577621,-0.046727180480957,-0.0343625545501709,0.130443572998047,0.142757627773125
2.894577621,-0.0428857803344727,-0.0259100198745728,0.0781435966491699,0.0928274796709765
2.899577621,-0.0678234100341797,-0.0103093385696411,0.0696913003921509,0.0977914861363553
2.904577621,-0.0656719207763672,-0.00510334968566895,0.0686588287353516,0.0951466243215281
2.909577621,-0.0638008117675781,-0.00359094142913818,0.0650179386138916,0.0911634289841558
2.914577621,-0.060246467590332,-0.00130844116210938,0.0558706521987915,0.082175900679615
2.919577621,-0.0474557876586914,-0.0129411220550537,0.0530554056167603,0.0723491567850625
2.924577621,-0.0410470962524414,-0.00964343547821045,0.0310556888580322,0.0523671248879152
2.929577621,-0.0301761627197266,-0.0175273418426514,0.0194005966186523,0.0399273297093136
2.934577621,-0.0217266082763672,-0.0148674249649048,0.0163369178771973,0.0309835556062901
2.939577621,-0.00442123413085938,-0.00582993030548096,0.00954055786132813,0.012023212670164
2.944577621,0.0111017227172852,-0.00220119953155518,0.00620400905609131,0.0129067135645472
2.949577621,0.0121307373046875,-0.00667023658752441,0.00670802593231201,0.0153832524388523
2.954577621,0.0336780548095703,-0.00795269012451172,-0.00968599319458008,0.0359343167478996
2.959577621,0.02947998046875,-0.0157191753387451,-0.0168089866638184,0.0373992480463514
2.964577621,0.0430736541748047,-0.0178439617156982,-0.0245555639266968,0.0526946142735675
2.969577621,0.050297737121582,-0.0104999542236328,-0.0171302556991577,0.0541623213919851
2.974577621,0.0591306686401367,-0.0175850391387939,-0.0223174095153809,0.0656028684039027
2.979577621,0.0457582473754883,-0.00554680824279785,-0.0422186851501465,0.0625060129936789
2.984577621,0.0423164367675781,-0.00892102718353272,-0.0167915821075439,0.0463920550998569
2.989577621,0.0449190139770508,-0.0228215456008911,-0.0280154943466187,0.057649012860321
2.994577621,0.0354881286621094,-0.00973081588745117,-0.0249772071838379,0.0444742277333543
2.999577621,0.0192050933837891,-0.00705897808074951,-0.0251703262329102,0.0324377882429688
3.004577621,0.0161981582641602,-0.00994384288787842,-0.0455259084701538,0.0493342546772769
3.009577621,0.00811195373535156,-0.0100911855697632,-0.0235357284545898,0.0268619867749218
3.014577621,0.0160627365112305,-0.0182232856750488,-0.0159530639648438,0.0290620008755428
3.019577621,0.00908851623535156,-0.00895977020263672,-0.0179139375686646,0.0219951760315374
3.024577621,-0.00807476043701172,-0.00234115123748779,-0.0128941535949707,0.0153929185719478
3.029577621,-0.0190515518188477,-0.00774216651916504,-0.0250296592712402,0.03239423733245
3.034577621,-0.0166082382202148,-0.000528812408447266,0.00698244571685791,0.0180240885353906
3.039577621,-0.0257692337036133,0.00530004501342773,0.00724828243255615,0.0272888526881931
3.044577621,-0.0392389297485352,0.00298130512237549,0.0122801065444946,0.041223570985388
3.049577621,-0.0436277389526367,0.00679349899291992,-0.00417625904083252,0.0443505622767328
3.054577621,-0.0427236557006836,-0.00158190727233887,0.0114806890487671,0.0442675886861179
3.059577621,-0.0396051406860352,0.00333988666534424,0.0188626050949097,0.0439945437828885
3.064577621,-0.0386743545532227,-0.00261878967285156,0.024300217628479,0.0457500200683065
3.069577621,-0.0287265777587891,-0.00382351875305176,0.0154678821563721,0.0328495196888799
3.074577621,-0.0313959121704102,-0.00706267356872559,0.00122606754302979,0.0322038491576792
3.079577621,-0.0253667831420898,-0.00539767742156982,0.00802230834960938,0.0271471184434251
3.084577621,-0.0167484283447266,0.00010383129119873,-0.00383961200714111,0.0171832259288195
3.089577621,-0.0126914978027344,-0.0118687152862549,0.0127002000808716,0.0215229087513087
3.094577621,0.000377655029296875,-0.00024259090423584,0.0139052867889404,0.0139125294016096
3.099577621,-0.0160436630249023,-0.0175129175186157,-0.00813531875610352,0.0251054737962434
3.104577621,0.00463485717773438,-0.0132682323455811,-0.00504493713378906,0.0149324907941777
3.109577621,0.0104551315307617,-0.00716352462768555,-0.0103297233581543,0.016350200153912
3.114577621,0.0130119323730469,-0.0077584981918335,-0.00969409942626953,0.0179855564817947
3.119577621,0.0215768814086914,-0.0134987831115723,-0.0167617797851563,0.0304751738040011
3.124577621,0.0307416915893555,-0.0314306020736694,-0.0323499441146851,0.0545843680252107
3.129577621,0.0224332809448242,-0.0134143829345703,-0.0302759408950806,0.0399978794506298
3.134577621,0.0300846099853516,-0.0175043344497681,-0.0381401777267456,0.0516348587635116
3.139577621,0.0146379470825195,-0.0168876647949219,-0.0420753955841064,0.0476424351872921
3.144577621,0.0116548538208008,-0.0158406496047974,-0.041991114616394,0.0463682596634092
3.149577621,0.00141525268554688,-0.00777208805084229,-0.056879997253418,0.057425973046896
3.154577621,0.0208988189697266,0.00529015064239502,-0.0451653003692627,0.0500464852471615
3.159577621,0.0176582336425781,-0.00733506679534912,-0.0591572523117065,0.0621707079044386
3.164577621,0.0297451019287109,0.00389242172241211,-0.0525856018066406,0.0605406272925965
3.169577621,0.030095100402832,0.00377297401428223,-0.0648735761642456,0.0716137646371643
3.174577621,0.0167026519775391,-0.00972342491149902,-0.0621399879455566,0.0650761221721629
3.179577621,0.018742561340332,-0.00900006294250488,-0.0657515525817871,0.068960506128368
3.184577621,0.042943000793457,0.00609791278839111,-0.0672478675842285,0.0800222566049447
3.189577621,0.0320587158203125,0.00482428073883057,-0.0573827028274536,0.0659075832395519
3.194577621,0.0178089141845703,-0.0000537633895874023,-0.0559626817703247,0.0587280347522551
3.199577621,0.0122880935668945,0.00633740425109863,-0.0606787204742432,0.0622339702617625
3.204577621,0.0133733749389648,-0.00000894069671630859,-0.0468003749847412,0.0486736308066964
3.209577621,0.018498420715332,0.00877416133880615,-0.0413762331008911,0.0461645983604331
3.214577621,0.00596809387207031,-0.00789618492126465,-0.0439709424972534,0.0450711844183556
3.219577621,-0.00772190093994141,0.00157392024993896,-0.0420304536819458,0.0427628812849371
3.224577621,-0.00718402862548828,0.00487267971038818,-0.0431489944458008,0.0440135092504064
3.229577621,-0.0115909576416016,0.0110117197036743,-0.0353459119796753,0.0387935788959545
3.234577621,-0.00907611846923828,0.00764811038970947,-0.0343326330184937,0.0363262881255901
3.239577621,-0.00567817687988281,-0.00210797786712647,-0.013561487197876,0.0148525822127226
3.244577621,-0.0194025039672852,-0.0122456550598145,-0.0167887210845947,0.028430166789887
3.249577621,-0.0153360366821289,0.011770486831665,-0.0293132066726685,0.0351141348576977
3.254577621,-0.0153217315673828,0.0171531438827515,-0.0188308954238892,0.0297252153188292
3.259577621,-0.0117025375366211,0.00454020500183106,-0.0244072675704956,0.0274459023628746
3.264577621,-0.023930549621582,-0.00191760063171387,-0.0285090208053589,0.0372708017710129
3.269577621,-0.0154275894165039,0.000768542289733887,-0.0358741283416748,0.03905834426509
3.274577621,-0.0228385925292969,0.00489282608032227,-0.00310862064361572,0.023562779506617
3.279577621,-0.0160846710205078,-0.00218915939331055,-0.0169428586959839,0.0234642178961789
3.284577621,-0.0181913375854492,0.00506627559661865,-0.010451078414917,0.0215827929518729
3.289577621,-0.0125818252563477,0.00488114356994629,-0.0234743356704712,0.027077155029686
3.294577621,-0.0116920471191406,0.0116815567016602,-0.0311366319656372,0.0352512777495206
3.299577621,-0.00671768188476563,0.00113415718078613,-0.0278269052505493,0.0286487385104246
3.304577621,-0.00623416900634766,-0.00374293327331543,-0.0412050485610962,0.0418417308390857
3.309577621,0.00300407409667969,0.00911343097686768,-0.0282775163650513,0.0298612963068286
3.314577621,0.00577831268310547,-0.00352287292480469,-0.0343661308288574,0.0350261399422518
3.319577621,0.0132589340209961,0.00199079513549805,-0.0345125198364258,0.0370253510733434
3.324577621,0.0218772888183594,0.00737226009368897,-0.0431119203567505,0.0489040250059002
3.329577621,0.0221118927001953,0.00835275650024414,-0.0261142253875732,0.0352229627875098
3.334577621,0.020787239074707,0.00343930721282959,-0.0397416353225708,0.0449815042052337
3.339577621,0.0207128524780273,0.00456249713897705,-0.0413585901260376,0.0464797979248326
3.344577621,0.029820442199707,0.00790321826934815,-0.0324476957321167,0.0447724534766976
3.349577621,0.0294780731201172,-0.000851869583129883,-0.0374596118927002,0.0476749934432441
3.354577621,0.0215702056884766,0.00089573860168457,-0.0567270517349243,0.0606962479863666
3.359577621,0.0134286880493164,0.0119633674621582,-0.046270489692688,0.0496428246593768
3.364577621,0.0176277160644531,0.00763392448425293,-0.0280041694641113,0.0339594859215348
3.369577621,0.0187644958496094,0.00896716117858887,-0.0146323442459106,0.0254287589595645
3.374577621,0.0220136642456055,0.0123087167739868,-0.0145920515060425,0.0291381861016685
3.379577621,0.0219326019287109,0.018153190612793,-0.00624823570251465,0.029148204167356
3.384577621,0.0181665420532227,0.0102698802947998,-0.00595128536224365,0.0217004951303854
3.389577621,0.00813865661621094,0.00278937816619873,-0.00401949882507324,0.00949603774610366
3.394577621,0.0143184661865234,0.0106508731842041,-0.00405681133270264,0.0183007456599385
3.399577621,-0.00298404693603516,0.0237964391708374,0.00870323181152344,0.0255131592965853
3.404577621,-0.00730991363525391,0.00501430034637451,0.0170506238937378,0.0192172271799088
3.409577621,-0.0192117691040039,0.00873959064483643,0.0282561779022217,0.0352687412078582
3.414577621,-0.0186185836791992,0.000468254089355469,0.0340850353240967,0.0388414798013214
3.419577621,-0.0461502075195313,0.00261354446411133,0.43031919002533,0.432794729141677
3.424577621,-0.0591726303100586,-0.0361264944076538,0.671072602272034,0.674644322066195
3.429577621,-0.0174922943115234,-0.0337355136871338,0.257973313331604,0.260757158358695
3.434577621,-0.00301551818847656,-0.0208636522293091,0.0225256681442261,0.0308511111572077
3.439577621,-0.0206222534179688,-0.0207453966140747,0.00316119194030762,0.0294217938133223
3.444577621,-0.0270318984985352,-0.0126074552536011,0.00919103622436523,0.0312113218445527
3.449577621,-0.027191162109375,-0.00603699684143066,0.018964409828186,0.0336964904382215
3.454577621,-0.0322551727294922,0.00272619724273682,0.0163867473602295,0.0362815904869628
3.459577621,-0.0390748977661133,-0.00432479381561279,0.0133737325668335,0.0415259942656278
3.464577621,-0.0325279235839844,-0.0102914571762085,0.0187630653381348,0.0389362623318979
3.469577621,-0.0242424011230469,0.0062793493270874,0.0248225927352905,0.0352602517047794
3.474577621,-0.0175466537475586,0.0176807641983032,0.0111625194549561,0.0272964525342577
3.479577621,-0.0298824310302734,0.0180248022079468,0.0148793458938599,0.0379374236492645
3.484577621,-0.00699710845947266,0.0113050937652588,0.00973105430603027,0.0164759852434332
3.489577621,-0.00556087493896484,0.0000706911087036133,0.0215152502059937,0.0222223832823162
3.494577621,-0.000392913818359375,-0.00336110591888428,0.0168606042861938,0.0171968424765198
3.499577621,0.00470352172851563,-0.00797975063323975,-0.00587642192840576,0.0109695884836195
3.504577621,0.00975990295410156,-0.0107626914978027,0.00703191757202148,0.0161412235809452
3.509577621,0.0193185806274414,-0.0107417106628418,-0.0163495540618897,0.0274936324163581
3.514577621,0.0209016799926758,-0.0148986577987671,-0.0124199390411377,0.0285149980976076
3.519577621,0.0259180068969727,-0.0201916694641113,-0.0249634981155396,0.041262850548938
3.524577621,0.0172252655029297,-0.0136148929595947,-0.0234662294387817,0.0321362568763257
3.529577621,0.0162534713745117,-0.0127204656600952,-0.0214531421661377,0.0297694959166636
3.534577621,0.0130071640014648,-0.00143921375274658,-0.0176130533218384,0.0219425909797594
3.539577621,0.0215883255004883,-0.0139451026916504,-0.0264183282852173,0.0368571533949818
3.544577621,0.01708984375,-0.00611484050750732,-0.0254533290863037,0.0312622135397886
3.549577621,0.0131797790527344,-0.0115222930908203,-0.0167777538299561,0.0242479450166043
3.554577621,0.0105352401733398,-0.00577914714813232,-0.0126324892044067,0.017434724281421
3.559577621,0.00916004180908203,-0.00685381889343262,-0.0165382623672485,0.0201095828274993
3.564577621,0.0214929580688477,-0.0133293867111206,-0.0100805759429932,0.0272256828745634
3.569577621,0.00767898559570313,-0.00867187976837158,-0.012107253074646,0.0167557123247457
3.574577621,0.00330257415771484,-0.00720334053039551,-0.012598991394043,0.0148838736561156
3.579577621,0.012171745300293,-0.00975251197814941,-0.000551342964172363,0.0156066284829009
3.584577621,0.00130367279052734,-0.0117993354797363,0.00384950637817383,0.0124796866893255
3.589577621,-0.0000896453857421875,-0.0115640163421631,-0.01258385181427,0.0170905774256023
3.594577621,0.00598526000976563,0.00557351112365723,-0.00100219249725342,0.00823964522486141
3.599577621,0.000286102294921875,-0.0053786039352417,0.0020599365234375,0.0057666778387516
3.604577621,-0.0131893157958984,0.00876712799072266,0.00325405597686768,0.0161681620684058
3.609577621,-0.0182170867919922,0.00197267532348633,0.0113916397094727,0.021575985594853
3.614577621,-0.0143241882324219,0.0019681453704834,0.0188578367233276,0.0237628695784178
3.619577621,-0.0179586410522461,-0.00183367729187012,0.0264172554016113,0.0319960395019149
3.624577621,-0.0241193771362305,-0.00745832920074463,0.0322568416595459,0.0409618708283132
3.629577621,-0.0272407531738281,-0.00769877433776856,0.0210915803909302,0.0353013388296872
3.634577621,-0.0679254531860352,-0.00333523750305176,0.0120689868927002,0.0690699025940111
3.639577621,-0.126967430114746,0.0134398937225342,0.00700581073760986,0.127868840760004
3.644577621,-0.131638526916504,0.00875246524810791,0.0285162925720215,0.134975873246738
3.649577621,-0.0830345153808594,-0.00527620315551758,-0.0000493526458740234,0.0832019921633859
3.654577621,-0.0356769561767578,-0.0250660181045532,-0.0338939428329468,0.0552263508338108
3.659577621,0.0321693420410156,-0.0284198522567749,0.01542067527771,0.045610873656063
3.664577621,0.102911949157715,-0.0221812725067139,0.00935482978820801,0.105690070346384
3.669577621,0.135710716247559,-0.0186270475387573,-0.0045706033706665,0.137059314968405
3.674577621,0.126873970031738,-0.00589859485626221,-0.0154240131378174,0.127944120123468
3.679577621,0.0846996307373047,-0.00398433208465576,-0.00433003902435303,0.0849037784032549
3.684577621,0.0528440475463867,0.00893545150756836,0.0233246088027954,0.0584497479082017
3.689577621,0.0433597564697266,0.00440382957458496,-0.020638108253479,0.0482223361972261
3.694577621,0.0480794906616211,0.00757992267608643,-0.0324562788009644,0.0585021596495573
3.699577621,0.0330219268798828,0.00934922695159912,-0.0234477519989014,0.0415650426831829
3.704577621,0.0165472030639648,0.0142805576324463,-0.0240237712860107,0.0324790061783956
3.709577621,0.00800895690917969,0.0111212730407715,-0.0269085168838501,0.0301975890711317
3.714577621,-0.017491340637207,0.00519168376922607,-0.0278164148330688,0.0332664021470887
3.719577621,-0.0274877548217773,0.00229895114898682,-0.0498045682907105,0.0569329154720853
3.724577621,-0.0291805267333984,0.00975990295410156,-0.0480892658233643,0.0570905975931436
3.729577621,-0.015467643737793,-0.00312113761901855,-0.049213171005249,0.0516809994410714
3.734577621,-0.0030059814453125,-0.017125129699707,-0.0482709407806397,0.0513068193862119
3.739577621,-0.00126361846923828,-0.0223342180252075,-0.0500407218933106,0.0548132089375996
3.744577621,-0.00135993957519531,0.00596976280212402,-0.0460927486419678,0.0464976233901629
3.749577621,-0.00776863098144531,0.00401771068572998,-0.0195214748382568,0.0213911571996654
3.754577621,0.000100135803222656,-0.00315368175506592,-0.0167908668518066,0.0170847576929385
3.759577621,0.00320720672607422,-0.0029137134552002,-0.0344221591949463,0.0346938170964945
3.764577621,0.0161094665527344,-0.0027623176574707,-0.0144522190093994,0.0218176979938326
3.769577621,0.0115203857421875,0.0102688074111938,-0.0115557909011841,0.0192796264654914
3.774577621,0.00500011444091797,0.00722312927246094,-0.0257853269577026,0.0272407383751723
3.779577621,-0.00797939300537109,0.0116370916366577,-0.0073702335357666,0.0159189496156585
3.784577621,-0.00777435302734375,0.0115782022476196,-0.013369083404541,0.019319102550536
3.789577621,-0.00489139556884766,0.00590944290161133,-0.0107407569885254,0.0131989062692673
3.794577621,-0.00293540954589844,0.00906026363372803,-0.013972282409668,0.0169094554037179
3.799577621,-0.0206384658813477,0.00242352485656738,-0.0229676961898804,0.0309731305317463
3.804577621,-0.0263671875,0.0149593353271484,-0.0211725234985352,0.0369768311431125
3.809577621,-0.0234441757202148,0.00488770008087158,-0.0117144584655762,0.0266598485446293
3.814577621,-0.0208940505981445,0.00122487545013428,-0.0105679035186768,0.023446583014295
3.819577621,-0.00739288330078125,0.00973165035247803,-0.00783789157867432,0.0145186874916746
3.824577621,-0.00779819488525391,-0.00331628322601318,-0.0174785852432251,0.0194244824901005
3.829577621,-0.00482749938964844,0.013792872428894,-0.00805091857910156,0.0166842851259538
3.834577621,0.00496101379394531,0.00531411170959473,-0.0240265130996704,0.0251022862077222
3.839577621,0.00717926025390625,0.00245106220245361,-0.0285434722900391,0.0295343747874547
3.844577621,0.00538063049316406,-0.00434708595275879,-0.0181691646575928,0.0194413704542493
3.849577621,0.00142383575439453,0.00161445140838623,-0.0158610343933105,0.0160064416292727
3.854577621,0.00501155853271484,0.00507605075836182,-0.0141377449035645,0.0158353352091629
3.859577621,0.0340852737426758,0.00960290431976318,-0.024227499961853,0.0429067991335786
3.864577621,0.0207633972167969,0.011724591255188,-0.0153855085372925,0.0283777831592748
3.869577621,0.0258979797363281,-0.00324177742004395,-0.0255149602890015,0.03649969416055
3.874577621,0.0287904739379883,0.0000823736190795898,-0.00975847244262695,0.0303994401165649
3.879577621,0.0346460342407227,-0.00298583507537842,-0.00418901443481445,0.0350258581856572
3.884577621,0.0260076522827148,-0.00460159778594971,-0.0042266845703125,0.0267476642325863
3.889577621,0.0233306884765625,-0.00932085514068604,0.00450670719146729,0.0255246895192416
3.894577621,0.0178089141845703,0.00966775417327881,-0.0071340799331665,0.0214829698058985
3.899577621,0.0139389038085938,0.0017324686050415,0.0000680685043334961,0.0140463205208327
3.904577621,0.00938701629638672,-0.0117672681808472,-0.0124495029449463,0.0195339396683013
3.909577621,0.00814247131347656,-0.00611305236816406,0.00329446792602539,0.010701531070941
3.914577621,-0.00592231750488281,-0.00843882560729981,0.0155261754989624,0.0186373213709385
3.919577621,-0.0177946090698242,0.00512933731079102,0.00518143177032471,0.0192303262683261
3.924577621,-0.0104036331176758,0.00134801864624023,0.00727987289428711,0.0127690753649114
3.929577621,-0.0214977264404297,0.00531089305877686,0.0342122316360474,0.0407533387676136
3.934577621,-0.018397331237793,0.00781989097595215,0.0458294153213501,0.0499994779997317
3.939577621,-0.0122785568237305,0.00685155391693115,0.041793704032898,0.0440955830615682
3.944577621,-0.0144634246826172,0.00541067123413086,0.0499918460845947,0.0523225638869064
3.949577621,-0.0153369903564453,-0.00406384468078613,0.0661033391952515,0.0679808028751185
3.954577621,-0.0565299987792969,0.00280165672302246,0.0681612491607666,0.0885970988776555
3.959577621,-0.137486457824707,0.034855842590332,-0.207827925682068,0.251614591272402
3.964577621,-0.0923919677734375,0.0259789228439331,-0.319236755371094,0.333351595347979
3.969577621,-0.0667610168457031,0.00467288494110107,-0.383325219154358,0.389123493076018
3.974577621,-0.0353679656982422,-0.00555503368377686,-0.41914713382721,0.4206733545073
3.979577621,-0.0780277252197266,0.060371994972229,2.99082326889038,2.99244998778861
3.984577621,0.110635757446289,0.0331737995147705,-0.816977679729462,0.825101994286825
3.989577621,-0.0341768264770508,-0.0348548889160156,0.22741961479187,0.232599655935844
3.994577621,0.101519584655762,-0.00703907012939453,0.40978741645813,0.42223394139315
3.999577621,0.179119110107422,-0.00435018539428711,-0.0917661190032959,0.201304744890841
4.004577621,0.0742549896240234,0.000691652297973633,0.396178603172302,0.403077867760712
4.009577621,0.158727645874023,0.0100297927856445,-0.060800313949585,0.17026961115948
4.014577621,0.0726528167724609,0.0150825977325439,-0.135565876960754,0.154544568120245
4.019577621,0.0159749984741211,0.0244745016098022,0.116774201393127,0.120376143468293
4.024577621,-0.0242643356323242,0.0144386291503906,-0.0413010120391846,0.0500300468806642
4.029577621,-0.0375509262084961,0.00321149826049805,-0.0139974355697632,0.0402034076008834
4.034577621,0.00612068176269531,0.00656783580780029,-0.0340917110443115,0.0352539923181368
4.039577621,0.00496768951416016,-0.00914621353149414,-0.0146129131317139,0.0179406909361875
4.044577621,0.00511550903320313,-0.0208184719085693,-0.0492618083953857,0.0537243238362324
4.049577621,0.0358057022094727,-0.0301182270050049,-0.0543681383132935,0.0717290064917384
4.054577621,0.00837230682373047,-0.0270981788635254,0.000520586967468262,0.0283668438508939
4.059577621,-0.00691318511962891,-0.0196340084075928,-0.0767074823379517,0.0794815969975116
4.064577621,-0.023468017578125,0.0175838470458984,-0.0689281225204468,0.0749067794006287
4.069577621,-0.00638484954833984,-0.00674271583557129,-0.0144915580749512,0.0172115012719368
4.074577621,0.00896549224853516,0.00744950771331787,-0.0592244863510132,0.0603607074177455
4.079577621,-0.000919342041015625,0.00739800930023193,-0.0576409101486206,0.058120996672081
4.084577621,0.0161314010620117,0.0211396217346191,-0.0278006792068481,0.0384705533059811
4.089577621,0.018101692199707,0.028349757194519,-0.046114444732666,0.0570782095591937
4.094577621,-0.00211143493652344,0.00595545768737793,-0.00468790531158447,0.00786778812422542
4.099577621,0.00395774841308594,0.0171723365783691,-0.0175412893295288,0.0248646284388953
4.104577621,-0.0395450592041016,0.0433948040008545,-0.0735145807266235,0.0940814237835489
4.109577621,-0.232726097106934,0.104655623435974,-0.0917103290557861,0.271154974593716
4.114577621,-0.490036964416504,0.208086252212524,-0.133925437927246,0.548973713194358
4.119577621,-0.686883926391602,0.27263069152832,-0.200268983840942,0.765666172810995
4.124577621,-0.614516258239746,0.243266820907593,-0.138713002204895,0.675314944878433
4.129577621,-0.385505676269531,0.188144207000732,-0.124460101127625,0.446657795002686
4.134577621,0.198119163513184,0.00519990921020508,-0.060086727142334,0.207095767184255
4.139577621,0.760652542114258,-0.177510380744934,0.0955243110656738,0.786909854495206
4.144577621,0.695295333862305,-0.14830470085144,0.0213603973388672,0.711256741380919
4.149577621,0.246336936950684,-0.0535128116607666,-0.0267869234085083,0.253501571560768
4.154577621,-0.13826847076416,0.0465259552001953,-0.0409493446350098,0.151524530491887
4.159577621,-0.461172103881836,0.180181980133057,-0.127081155776978,0.511170104287292
4.164577621,-0.697461128234863,0.282286643981934,-0.157114624977112,0.768649972452305
4.169577621,-0.784126281738281,0.351331114768982,-0.171619534492493,0.876208218711134
4.174577621,-0.779972076416016,0.384018659591675,-0.157871723175049,0.88360073103272
4.179577621,-0.639382362365723,0.388871312141418,-0.158495545387268,0.764951985825626
4.184577621,-0.353846549987793,0.346505880355835,-0.155137777328491,0.518981151886907
4.189577621,-0.130102157592773,0.329203486442566,-0.0150234699249268,0.354298195796734
4.194577621,0.0690841674804688,0.298671007156372,-0.00496852397918701,0.3065969323767
4.199577621,0.296821594238281,0.239547848701477,0.0389937162399292,0.383414580486789
4.204577621,0.504034996032715,0.177765607833862,0.121183037757874,0.548030306821135
4.209577621,0.598723411560059,0.129990458488464,0.0799601078033447,0.617867996976764
4.214577621,0.769603729248047,-0.00129818916320801,0.191642761230469,0.79310688642808
4.219577621,0.803196907043457,-0.0545939207077026,0.172513723373413,0.823326637741409
4.224577621,0.832911491394043,-0.121978282928467,0.186812043190002,0.86227547424431
4.229577621,0.762992858886719,-0.12980055809021,0.182993412017822,0.795294207469527
4.234577621,0.622538566589356,-0.0738905668258667,0.132407665252686,0.640738536826563
4.239577621,0.42796802520752,-0.0100120306015015,0.0930653810501099,0.438084508407672
4.244577621,0.249761581420898,0.0916587114334106,0.0261310338973999,0.267329380854496
4.249577621,0.115859985351563,0.195611715316772,0.00674653053283691,0.227448884475314
4.254577621,0.112570762634277,0.261809945106506,-0.0183223485946655,0.285573689990446
4.259577621,0.175731658935547,0.300112366676331,-0.00452721118927002,0.347806762765562
4.264577621,0.282319068908691,0.328500747680664,-0.0331984758377075,0.434417928605821
4.269577621,0.396475791931152,0.347542285919189,0.00602293014526367,0.527271248767563
4.274577621,0.500720977783203,0.397918462753296,0.0256161689758301,0.640091234672927
4.279577621,0.530727386474609,0.416549682617188,-0.0164207220077515,0.674873941528272
4.284577621,0.46641731262207,0.476436853408814,0.0605311393737793,0.669478307067207
4.289577621,0.401340484619141,0.540932416915894,-0.0592970848083496,0.6761643354478
4.294577621,0.160600662231445,0.587501287460327,0.0741604566574097,0.613555302159762
4.299577621,0.0115232467651367,0.666345179080963,-0.073980450630188,0.670538432885019
4.304577621,-0.17104434967041,0.668308198451996,-0.0895959138870239,0.695643188321123
4.309577621,-0.235498428344727,0.638513326644898,-0.0472902059555054,0.682198755228477
4.314577621,-0.198817253112793,0.601235806941986,-0.0194995403289795,0.633555860013574
4.319577621,-0.201597213745117,0.467443943023682,0.18787145614624,0.542624142933053
4.324577621,-0.0938587188720703,0.382320761680603,0.155478477478027,0.423263724974428
4.329577621,-0.0584936141967773,0.364391684532166,0.0986496210098267,0.382013809152723
4.334577621,-0.0950384140014648,0.305288434028626,0.329967021942139,0.45946878420294
4.339577621,-0.0226984024047852,0.264193654060364,0.249905705451965,0.364371192515189
4.344577621,-0.0338878631591797,0.304983854293823,0.159445524215698,0.3458126860626
4.349577621,-0.0733833312988281,0.313137173652649,0.111133933067322,0.340280404835034
4.354577621,-0.109354019165039,0.36682116985321,0.0559802055358887,0.386846036003816
4.359577621,-0.195831298828125,0.416438221931458,0.143957853317261,0.482176890588774
4.364577621,-0.17861270904541,0.47492516040802,0.0903638601303101,0.515385326759284
4.369577621,-0.138469696044922,0.553467452526093,-0.0189504623413086,0.57084078143686
4.374577621,-0.109675407409668,0.582883715629578,-0.060570240020752,0.596197010150831
4.379577621,-0.055546760559082,0.596179842948914,-0.0591403245925903,0.601675515323763
4.384577621,-0.0277843475341797,0.619076311588287,0.00374257564544678,0.619710784487506
4.389577621,0.100146293640137,0.638064682483673,-0.136760115623474,0.660196295345705
4.394577621,0.264142036437988,0.608988165855408,-0.0162551403045654,0.664004390913089
4.399577621,0.370983123779297,0.628572165966034,-0.0951573848724365,0.73606139271941
4.404577621,0.473152160644531,0.626394093036652,-0.117275238037109,0.793722878825134
4.409577621,0.488938331604004,0.604194760322571,-0.00999355316162109,0.777310666090303
4.414577621,0.517671585083008,0.650250196456909,-0.17068612575531,0.848494514725912
4.419577621,0.452775955200195,0.593638896942139,0.0387979745864868,0.747608512794057
4.424577621,0.402332305908203,0.636796414852142,-0.167343854904175,0.77161189993425
4.429577621,0.28575611114502,0.616738200187683,-0.0531963109970093,0.681800858118526
4.434577621,0.208978652954102,0.627701342105866,-0.147985935211182,0.677923955390532
4.439577621,0.16572380065918,0.612025737762451,-0.14252758026123,0.649887677159459
4.444577621,0.139871597290039,0.55038720369339,-0.146499991416931,0.586474539262411
4.449577621,0.159839630126953,0.460791230201721,-0.0878496170043945,0.495575241913633
4.454577621,0.119779586791992,0.323307871818543,0.144469261169434,0.373826827307428
4.459577621,0.137739181518555,0.284647226333618,-0.0208125114440918,0.316905800226872
4.464577621,0.0548419952392578,0.183869600296021,0.0836372375488281,0.2093104437424
4.469577621,-0.0313606262207031,0.094946026802063,0.166467070579529,0.19418939844848
4.474577621,-0.0711431503295898,0.0508272647857666,0.0750143527984619,0.115203783836266
4.479577621,-0.13101863861084,0.00335884094238281,0.068507194519043,0.147886446900262
4.484577621,-0.233170509338379,-0.0820987224578857,0.11419403553009,0.272303074541922
4.489577621,-0.31289005279541,-0.0877196788787842,-0.00959503650665283,0.325095358205059
4.494577621,-0.423755645751953,-0.165384531021118,0.109915494918823,0.467976822536095
4.499577621,-0.428875923156738,-0.210197329521179,0.0486112833023071,0.480083879822763
4.504577621,-0.456624031066895,-0.297250747680664,0.103184819221497,0.554536400664796
4.509577621,-0.38761043548584,-0.396138310432434,0.199404001235962,0.589007102163206
4.514577621,-0.305487632751465,-0.39399254322052,-0.0195231437683105,0.498932832172894
4.519577621,-0.277091979980469,-0.406215667724609,-0.0422474145889282,0.493534171171456
4.524577621,-0.29682445526123,-0.478639364242554,0.0607678890228272,0.566474301782466
4.529577621,-0.454147338867188,-0.615562200546265,0.470842480659485,0.898253455175701
4.534577621,-0.353649139404297,-0.600707292556763,0.458428502082825,0.834310287994927
4.539577621,-0.0873050689697266,-0.498957395553589,0.155128121376038,0.529759749025054
4.544577621,0.149872779846191,-0.454270124435425,-0.0351945161819458,0.479647631144659
4.549577621,0.244284629821777,-0.463535904884338,-0.119419932365417,0.537402675589047
4.554577621,0.252579689025879,-0.426729321479797,-0.178332924842834,0.526969681482738
4.559577621,0.294737815856934,-0.356700778007507,-0.364258646965027,0.588888942854312
4.564577621,0.255856513977051,-0.34218156337738,-0.321173548698425,0.534512138724105
4.569577621,0.180456161499023,-0.314779877662659,-0.0873976945877075,0.373214622735399
4.574577621,0.144686698913574,-0.250885248184204,-0.207799077033997,0.356452107603725
4.579577621,0.0683917999267578,-0.205799579620361,-0.1197829246521,0.247747561657728
4.584577621,0.0227928161621094,-0.11486804485321,-0.291372060775757,0.314025250573438
4.589577621,-0.0476417541503906,-0.0526752471923828,-0.26076078414917,0.270260254117018
4.594577621,-0.116209030151367,-0.0552681684494019,0.155213117599487,0.201618999619146
4.599577621,-0.0886907577514648,0.0340234041213989,-0.0814418792724609,0.125125625824478
4.604577621,-0.0912628173828125,0.0711733102798462,-0.0304614305496216,0.119676399862167
4.609577621,-0.0763797760009766,0.103372573852539,0.0448112487792969,0.136116888092617
4.614577621,-0.0525979995727539,0.113483428955078,0.129876852035522,0.18031371246002
4.619577621,-0.191551208496094,0.0346935987472534,0.511268615722656,0.547075048501858
4.624577621,-0.274798393249512,-0.0093986988067627,0.856116056442261,0.899186963078325
4.629577621,-0.276069641113281,0.0223298072814941,1.0759801864624,1.11105644712468
4.634577621,-0.0544729232788086,0.173027873039246,0.564082384109497,0.59253259849706
4.639577621,-0.04376220703125,0.245306253433228,0.39377498626709,0.465992519840544
4.644577621,-0.104907035827637,0.27611517906189,0.382811427116394,0.483518011045515
4.649577621,-0.174736976623535,0.30794882774353,0.378203749656677,0.518076797166713
4.654577621,-0.208846092224121,0.316372752189636,0.347877025604248,0.514516115888113
4.659577621,-0.229843139648438,0.332140803337097,0.300742268562317,0.503578488604182
4.664577621,-0.185946464538574,0.338735103607178,0.249518752098084,0.459975179481182
4.669577621,-0.123276710510254,0.323827147483826,0.236093640327454,0.419286746516998
4.674577621,-0.0522518157958984,0.319690108299255,0.212558746337891,0.387444496983883
4.679577621,-0.0028533935546875,0.29027533531189,0.186685681343079,0.345136865263242
4.684577621,0.0934991836547852,0.26225221157074,0.166752576828003,0.324537735397033
4.689577621,0.167695999145508,0.261425137519836,0.157111167907715,0.348064605695554
4.694577621,0.221914291381836,0.221341133117676,0.15001118183136,0.347478351273515
4.699577621,0.227739334106445,0.211211681365967,0.154512405395508,0.346914488117449
4.704577621,0.182290077209473,0.182358503341675,0.149736523628235,0.298169955727132
4.709577621,0.140815734863281,0.191733717918396,0.155861973762512,0.284400852032906
4.714577621,0.0895547866821289,0.145298957824707,0.176503896713257,0.245531001133445
4.719577621,0.0902805328369141,0.131659269332886,0.182008624076843,0.242098899313756
4.724577621,0.0917148590087891,0.0782037973403931,0.15860116481781,0.19920285832042
4.729577621,0.0975990295410156,0.0199215412139893,0.165332555770874,0.193021481626833
4.734577621,0.12558650970459,-0.0318775177001953,0.180067658424377,0.221838926171548
4.739577621,0.137332916259766,-0.087422251701355,0.193872570991516,0.253159147106731
4.744577621,0.118804931640625,-0.151540160179138,0.177515387535095,0.261898348106641
4.749577621,0.111617088317871,-0.205582857131958,0.165606141090393,0.286614862695481
4.754577621,0.0981998443603516,-0.240612149238586,0.163299560546875,0.306926965691207
4.759577621,0.070979118347168,-0.267870187759399,0.152220487594605,0.316170127581871
4.764577621,0.0392608642578125,-0.320141315460205,0.126611232757568,0.346500045580447
4.769577621,-0.00482749938964844,-0.383210778236389,0.0680074691772461,0.389228494808371
4.774577621,-0.0279512405395508,-0.442327380180359,0.0000122785568237305,0.443209638044665
4.779577621,-0.059412956237793,-0.489093065261841,-0.0898404121398926,0.500812565247322
4.784577621,-0.0788078308105469,-0.514922261238098,-0.166225433349609,0.546796583756597
4.789577621,-0.174341201782227,-0.907769441604614,-1.27815473079681,1.57737748481722
4.794577621,-0.243252754211426,-1.20348787307739,-1.96110129356384,2.31375738717212
4.799577621,-0.0560169219970703,-0.942000389099121,-1.09630298614502,1.44650712616406
4.804577621,0.142430305480957,-0.534180521965027,0.0198172330856323,0.553197925423982
4.809577621,0.186840057373047,-0.496881127357483,0.207275390625,0.56987994290197
4.814577621,0.187591552734375,-0.466628551483154,0.204438447952271,0.54288845513392
4.819577621,0.153561592102051,-0.430043816566467,0.175758242607117,0.489295214140004
4.824577621,0.0946187973022461,-0.405011773109436,0.105124115943909,0.428996891495919
4.829577621,0.0120773315429688,-0.388387441635132,-0.0705512762069702,0.394928030572045
4.834577621,-0.10465145111084,-0.408457040786743,-0.189483046531677,0.462269299554701
4.839577621,-0.118419647216797,-0.414099097251892,-0.233303666114807,0.489828414666189
4.844577621,-0.0851688385009766,-0.450577259063721,-0.304419040679932,0.550403987781221
4.849577621,-0.0679264068603516,-0.486577391624451,-0.356921076774597,0.607259590154779
4.854577621,-0.0372867584228516,-0.499297618865967,-0.379769444465637,0.628421232541237
4.859577621,-0.0180025100708008,-0.50616991519928,-0.356869697570801,0.619587003144813
4.864577621,-0.0112218856811523,-0.512495994567871,-0.300177335739136,0.594040830295189
4.869577621,-0.030919075012207,-0.517966866493225,-0.25908899307251,0.579976525659227
4.874577621,-0.0528335571289063,-0.508965849876404,-0.211012244224548,0.553501389620644
4.879577621,-0.0614595413208008,-0.492828726768494,-0.134839296340942,0.514625169405207
4.884577621,-0.0693864822387695,-0.486369967460632,-0.0337892770767212,0.492455017651861
4.889577621,-0.0657272338867188,-0.46000862121582,0.0629373788833618,0.468923356773777
4.894577621,-0.109044075012207,-0.452470421791077,0.125631928443909,0.482082435207505
4.899577621,-0.131063461303711,-0.424959659576416,0.156130433082581,0.47132266579358
4.904577621,-0.146368026733398,-0.399671673774719,0.206727266311646,0.473177777061012
4.909577621,-0.143228530883789,-0.387196898460388,0.217784643173218,0.466761182017698
4.914577621,-0.102461814880371,-0.366581201553345,0.188973903656006,0.424960394747396
4.919577621,-0.0562124252319336,-0.371470093727112,0.149426937103271,0.404324469722215
4.924577621,-0.00507640838623047,-0.347758412361145,0.121915817260742,0.368544637443557
4.929577621,0.0406713485717773,-0.34826934337616,0.0598101615905762,0.355700645992946
4.934577621,0.0895099639892578,-0.34144115447998,-0.0067063570022583,0.353042590702909
4.939577621,0.121838569641113,-0.308464407920837,-0.0691636800765991,0.338789820756001
4.944577621,0.187965393066406,-0.29842483997345,-0.0941462516784668,0.365036834865871
4.949577621,0.257957458496094,-0.313196539878845,-0.109155297279358,0.420177345783884
4.954577621,0.265801429748535,-0.282186508178711,-0.151420712471008,0.416182481154225
4.959577621,0.212405204772949,-0.262930274009705,-0.190231561660767,0.387861247171396
4.964577621,0.0822029113769531,-0.214650869369507,-0.256686091423035,0.344557780190735
4.969577621,-0.12421703338623,-0.157989382743835,-0.34809410572052,0.401945298368351
4.974577621,-0.296509742736816,-0.124264240264893,-0.384204983711243,0.50097215337284
4.979577621,-0.400205612182617,-0.107528567314148,-0.415782570838928,0.587028168850972
4.984577621,-0.473628044128418,-0.107809543609619,-0.658929228782654,0.818617218498565
4.989577621,-0.458510398864746,-0.350313663482666,-1.38167333602905,1.49732182785913
4.994577621,-0.377904891967773,-0.404956459999085,-1.43789982795715,1.54089511554401
4.999577621,-0.160048484802246,-0.235059857368469,-0.740936756134033,0.793634632953983
5.004577621,0.119084358215332,-0.0704793930053711,0.0930730104446411,0.166766346974416
5.009577621,0.32941722869873,-0.0917587280273438,0.181942462921143,0.387347950228937
5.014577621,0.466734886169434,-0.0962979793548584,0.324295043945313,0.576439095068087
5.019577621,0.57696533203125,-0.104954242706299,0.396837472915649,0.708085000079836
5.024577621,0.617544174194336,-0.116945743560791,0.403661131858826,0.746980202811225
5.029577621,0.570990562438965,-0.132032871246338,0.395354270935059,0.706942643380995
5.034577621,0.490077018737793,-0.0968235731124878,0.328528046607971,0.597897119923856
5.039577621,0.369403839111328,-0.0822995901107788,0.274785399436951,0.467695878350788
5.044577621,0.188048362731934,-0.0542505979537964,0.186716437339783,0.270496473317798
5.049577621,0.0637168884277344,-0.0411137342453003,0.0753757953643799,0.106919088760232
5.054577621,0.0260725021362305,-0.155982732772827,-0.33757472038269,0.372782886050815
5.059577621,-0.00850677490234375,-0.332528352737427,-0.813332855701447,0.878725101927204
5.064577621,-0.0349922180175781,-0.233160138130188,-0.478576183319092,0.533500954614841
5.069577621,0.0284337997436523,-0.111762523651123,-0.0284762382507324,0.118786526195703
5.074577621,0.224608421325684,-0.0492937564849854,0.32827615737915,0.400804257540308
5.079577621,0.34974193572998,-0.038195013999939,0.435760617256165,0.560058565021626
5.084577621,0.439164161682129,-0.0261508226394653,0.470515131950378,0.644153332542004
5.089577621,0.469888687133789,-0.100171208381653,0.173374056816101,0.510772173147509
5.094577621,0.47263240814209,-0.16882050037384,-0.0907456874847412,0.510016209908806
5.099577621,0.294734954833984,-0.0400122404098511,-0.0332940816879272,0.299296122358859
5.104577621,0.0788688659667969,0.13232147693634,0.171926379203796,0.23084183144229
5.109577621,-0.214085578918457,0.261954188346863,0.214999675750732,0.400845970999129
5.114577621,-0.515885353088379,0.389987349510193,0.134884119033813,0.660622097629677
5.119577621,-0.843230247497559,0.445100665092468,0.0280787944793701,0.953907894432144
5.124577621,-1.04353046417236,0.496494054794312,0.0181134939193726,1.15576393556983
5.129577621,-1.18871879577637,0.524127542972565,-0.00530719757080078,1.2991498077899
5.134577621,-1.1795482635498,0.502004504203796,-0.00422704219818115,1.28193622936947
5.139577621,-1.04558181762695,0.445096433162689,0.0523560047149658,1.13758222709215
5.144577621,-0.806170463562012,0.352960526943207,0.109944581985474,0.886893319970207
5.149577621,-0.532843589782715,0.263645112514496,0.0662293434143066,0.598178370099088
5.154577621,-0.23261833190918,0.138359606266022,0.127151131629944,0.299035247522885
5.159577621,0.0473947525024414,0.046433687210083,0.173905491828918,0.186132936260484
5.164577621,0.276142120361328,-0.0453194379806519,0.19143807888031,0.339052886939363
5.169577621,0.44221305847168,-0.137738645076752,0.137171745300293,0.483053217709172
5.174577621,0.510201454162598,-0.192987501621246,0.177838087081909,0.573738690370967
5.179577621,0.482578277587891,-0.213738262653351,0.151809930801392,0.549192219547666
5.184577621,0.405499458312988,-0.265067875385284,0.0597735643386841,0.488122595509721
5.189577621,0.28904914855957,-0.268153667449951,0.0671607255935669,0.399957951180028
5.194577621,0.154446601867676,-0.261937737464905,-0.000829458236694336,0.304081928331284
5.199577621,0.0667362213134766,-0.2837975025177,-0.0847960710525513,0.30362002459725
5.204577621,0.00832366943359375,-0.307713329792023,-0.0899031162261963,0.32068574510214
5.209577621,-0.0267810821533203,-0.338167726993561,-0.0688121318817139,0.346135446661276
5.214577621,-0.0736894607543945,-0.342065334320068,-0.0797300338745117,0.358881189074329
5.219577621,-0.106825828552246,-0.368621528148651,-0.0243070125579834,0.384557433317853
5.224577621,-0.122493743896484,-0.383731007575989,0.00388991832733154,0.402826681010152
5.229577621,-0.13105297088623,-0.360494613647461,0.088994026184082,0.393765392516143
5.234577621,-0.143315315246582,-0.325914263725281,0.167397975921631,0.393422761449408
5.239577621,-0.152915954589844,-0.281141698360443,0.239362120628357,0.39964755537451
5.244577621,-0.160491943359375,-0.230254530906677,0.317940950393677,0.424100531505865
5.249577621,-0.16124153137207,-0.207412302494049,0.262101054191589,0.371100602631464
5.254577621,-0.17507266998291,-0.207042455673218,0.170934081077576,0.320523756217814
5.259577621,-0.174722671508789,-0.163773477077484,0.148892521858215,0.281990685659148
5.264577621,-0.160823822021484,-0.0951747894287109,0.211070537567139,0.281910117060879
5.269577621,-0.19544792175293,-0.076580822467804,0.101188182830811,0.233031244325705
5.274577621,-0.232897758483887,-0.069765031337738,-0.0129039287567139,0.243464652222315
5.279577621,-0.230935096740723,-0.0819308161735535,-0.123262047767639,0.274294021016469
5.284577621,-0.224955558776855,-0.0819106101989746,-0.202216982841492,0.313378460710515
5.289577621,-0.168178558349609,-0.077761173248291,-0.248807191848755,0.310219029508454
5.294577621,-0.0898342132568359,-0.0753231048583984,-0.238940000534058,0.266150483471662
5.299577621,-0.00250434875488281,-0.0838397145271301,-0.229675650596619,0.244512318650118
5.304577621,0.0573463439941406,-0.088649332523346,-0.268636822700501,0.288640000410458
5.309577621,0.0611495971679688,-0.112609624862671,-0.307354688644409,0.332997155359048
5.314577621,0.0386381149291992,-0.108175754547119,-0.311944603919983,0.332421921226497
5.319577621,0.051361083984375,-0.101049661636353,-0.245327949523926,0.270249510420436
5.324577621,0.000911712646484375,-0.10056734085083,-0.180886745452881,0.206965301309887
5.329577621,-0.0567893981933594,-0.0831543803215027,-0.169330596923828,0.197008978902986
5.334577621,-0.0893211364746094,-0.101273953914642,-0.078788161277771,0.156340185237683
5.339577621,-0.0954227447509766,-0.104910612106323,-0.0137463808059692,0.142480524050118
5.344577621,-0.105425834655762,-0.129091918468475,0.0154789686203003,0.16738855545193
5.349577621,-0.105522155761719,-0.134173452854157,0.0543587207794189,0.179143270407185
5.354577621,-0.128047943115234,-0.142976343631744,0.058945894241333,0.200781296495105
5.359577621,-0.165301322937012,-0.162577271461487,0.0715756416320801,0.24264988983231
5.364577621,-0.201717376708984,-0.137929022312164,0.127045750617981,0.275417751810645
5.369577621,-0.256207466125488,-0.128822028636932,0.0390743017196655,0.289420423977744
5.374577621,-0.28156852722168,-0.110193133354187,0.066641092300415,0.309619762520405
5.379577621,-0.264244079589844,-0.0972891449928284,0.0302213430404663,0.283202120237277
5.384577621,-0.202593803405762,-0.0884473323822022,-0.0395380258560181,0.224567217715613
5.389577621,-0.144062042236328,-0.0551513433456421,-0.0112677812576294,0.15466901945962
5.394577621,-0.0769863128662109,-0.0747644901275635,-0.0704132318496704,0.12835359197266
5.399577621,-0.0160932540893555,-0.0668200850486755,-0.0864436626434326,0.110437418497122
5.404577621,0.0144691467285156,-0.063594400882721,-0.0568265914916992,0.0865035579109206
5.409577621,0.0356569290161133,-0.0683243870735169,-0.065953254699707,0.101437026086712
5.414577621,0.0455474853515625,-0.0749033093452454,-0.0775501728057861,0.117043190638873
5.419577621,0.0798816680908203,-0.10860002040863,-0.0722633600234985,0.152960905239256
5.424577621,0.0995121002197266,-0.117246031761169,-0.0729554891586304,0.170211026235838
5.429577621,0.124070167541504,-0.152804374694824,-0.0924035310745239,0.217441936973284
5.434577621,0.134359359741211,-0.170296192169189,-0.0746220350265503,0.229394155829867
5.439577621,0.14827823638916,-0.177276968955994,-0.0750453472137451,0.242992516854605
5.444577621,0.133048057556152,-0.175764083862305,-0.0881317853927612,0.237406845714137
5.449577621,0.134197235107422,-0.207892835140228,-0.123581409454346,0.276587587530318
5.454577621,0.169598579406738,-0.195126712322235,-0.104789853096008,0.278960616056014
5.459577621,0.217486381530762,-0.233758807182312,-0.133347153663635,0.346012961428954
5.464577621,0.24852180480957,-0.220616042613983,-0.134163498878479,0.358377413010051
5.469577621,0.26200008392334,-0.196023881435394,-0.1075679063797,0.344441955272215
5.474577621,0.29076099395752,-0.155634582042694,-0.150983452796936,0.362712119666897
5.479577621,0.340052604675293,-0.114503800868988,-0.1303631067276,0.381760964420889
5.484577621,0.361320495605469,-0.0637108087539673,-0.127372145652771,0.388375116588147
5.489577621,0.379735946655273,-0.012658417224884,-0.114113807678223,0.396713480753602
5.494577621,0.351504325866699,0.0444563627243042,-0.105127096176147,0.369571868031249
5.499577621,0.312132835388184,0.0878783464431763,-0.194830060005188,0.378296527849092
5.504577621,0.225879669189453,0.12769341468811,-0.255617618560791,0.364235638051161
5.509577621,0.154050827026367,0.14689177274704,-0.331303477287293,0.393790355736307
5.514577621,0.132229804992676,0.156161189079285,-0.34925389289856,0.404783053014644
5.519577621,0.0885982513427734,0.15653395652771,-0.360191702842712,0.402604759638965
5.524577621,0.0547962188720703,0.147496700286865,-0.431461334228516,0.459256774726775
5.529577621,0.0261611938476563,0.0941623449325562,-0.53238832950592,0.541283926106103
5.534577621,-0.00693798065185547,0.017326831817627,-0.544235825538635,0.544555771685584
5.539577621,-0.0341701507568359,-0.023934006690979,-0.56541234254837,0.56694933899341
5.544577621,-0.0563745498657227,-0.0870866179466248,-0.571896493434906,0.581229531339458
5.549577621,-0.0856389999389648,-0.162687242031097,-0.510295808315277,0.542404820235194
5.554577621,-0.0917892456054688,-0.224966108798981,-0.468153059482574,0.527448862753415
5.559577621,-0.127107620239258,-0.26527327299118,-0.398369789123535,0.495201721899945
5.564577621,-0.134023666381836,-0.28863936662674,-0.346445202827454,0.470424601481758
5.569577621,-0.156692504882813,-0.321332037448883,-0.260291576385498,0.442219995154842
5.574577621,-0.16471004486084,-0.305530071258545,-0.192658066749573,0.39698256133613
5.579577621,-0.171907424926758,-0.310846745967865,-0.222053408622742,0.418909988547346
5.584577621,-0.21156120300293,-0.36250102519989,-0.393532633781433,0.575354733827723
5.589577621,-0.21842098236084,-0.332747220993042,-0.349317908287048,0.529576660800026
5.594577621,-0.158984184265137,-0.243532061576843,-0.0925412178039551,0.305201102316092
5.599577621,-0.156660079956055,-0.212466537952423,-0.0531033277511597,0.269266362213279
5.604577621,-0.15174674987793,-0.224063754081726,-0.153132677078247,0.310936100800248
5.609577621,-0.0975179672241211,-0.212865471839905,-0.140563011169434,0.273092334462482
5.614577621,-0.0468349456787109,-0.151444256305695,-0.0260239839553833,0.160642841874834
5.619577621,-0.047541618347168,-0.140984416007996,-0.0323894023895264,0.152269118403352
5.624577621,-0.0172452926635742,-0.162883043289185,-0.0064387321472168,0.163919929178432
5.629577621,0.0489187240600586,-0.144080281257629,0.120897650718689,0.194340965728381
5.634577621,-0.0615882873535156,-0.220146119594574,0.387435793876648,0.449848780690263
5.639577621,-0.660176277160645,-0.408982574939728,1.76173281669617,1.92530568506776
5.644577621,-0.969046592712402,-0.585334658622742,3.13865089416504,3.33658469049948
5.649577621,-0.713106155395508,-0.570709824562073,3.24921536445618,3.3751489711319
5.654577621,-0.19444751739502,-0.445615947246552,2.55814838409424,2.60394058390461
5.659577621,0.234573364257813,-0.204862594604492,1.51349878311157,1.54520934257062
5.664577621,0.366134643554688,-0.139194965362549,0.953051209449768,1.03040595079166
5.669577621,0.217922210693359,-0.166840314865112,0.806550621986389,0.851968125227935
5.674577621,0.0587844848632813,-0.168364703655243,0.4372798204422,0.472245625139632
5.679577621,-0.10892391204834,-0.199636876583099,0.0968499183654785,0.247182539422124
5.684577621,-0.233882904052734,-0.160422444343567,-0.271111965179443,0.392349679649117
5.689577621,-0.302385330200195,-0.142225980758667,-0.477172017097473,0.582544634705288
5.694577621,-0.334474563598633,-0.106104850769043,-0.65659487247467,0.744478542075758
5.699577621,-0.34870719909668,-0.0691600441932678,-0.758393168449402,0.837579859097262
5.704577621,-0.331859588623047,-0.0278636813163757,-0.808843195438385,0.874719661437044
5.709577621,-0.283223152160645,0.0161101222038269,-0.793590009212494,0.842769240468066
5.714577621,-0.222071647644043,0.0549317002296448,-0.678411185741425,0.715943465167848
5.719577621,-0.134610176086426,0.076958954334259,-0.535754442214966,0.557741340149097
5.724577621,-0.0585870742797852,0.0941832065582275,-0.395051956176758,0.410327880784791
5.729577621,0.00720310211181641,0.100531458854675,-0.26659083366394,0.285007248141371
5.734577621,0.0787143707275391,0.0836310386657715,-0.164734482765198,0.200817211909899
5.739577621,0.135900497436523,0.0805842280387878,-0.061383843421936,0.16950144319548
5.744577621,0.166569709777832,0.0545806288719177,-0.0258647203445435,0.177182101302662
5.749577621,0.0969419479370117,0.0446645617485046,0.0977916717529297,0.144761443106378
5.754577621,-0.26811408996582,-0.0938752293586731,0.726866364479065,0.780405302222093
5.759577621,-0.499680519104004,-0.256726980209351,1.4536384344101,1.55841395705175
5.764577621,-0.301872253417969,-0.245448350906372,1.58965301513672,1.63657216733011
5.769577621,-0.0352907180786133,-0.0832077264785767,1.22686445713043,1.23018915484497
5.774577621,0.208128929138184,0.122380793094635,0.619080066680908,0.664495928222526
5.779577621,0.283621788024902,0.193786978721619,0.214510440826416,0.404980790887715
5.784577621,0.241357803344727,0.214080661535263,0.104320168495178,0.339067569126907
5.789577621,0.163161277770996,0.242734998464584,-0.0988562107086182,0.308730355551787
5.794577621,0.0574808120727539,0.273869186639786,-0.305699586868286,0.414440119388461
5.799577621,0.00513935089111328,0.309647679328918,-0.482884526252747,0.573659798082196
5.804577621,0.0253276824951172,0.350062370300293,-0.589045643806458,0.685682087478007
5.809577621,0.06500244140625,0.38946869969368,-0.645401000976563,0.756606659692741
5.814577621,0.0990056991577148,0.419033318758011,-0.655203700065613,0.784017180471659
5.819577621,0.128960609436035,0.457608699798584,-0.635167479515076,0.793394156741149
5.824577621,0.191543579101563,0.49539852142334,-0.558566570281982,0.770782233292935
5.829577621,-0.0154800415039063,0.426495611667633,-0.0461961030960083,0.42926940072403
5.834577621,-0.0917892456054688,0.321365416049957,0.432112574577332,0.546280398101225
5.839577621,0.0271663665771484,0.262204498052597,0.495526432991028,0.56128037206447
5.844577621,0.296354293823242,0.378940045833588,0.57778537273407,0.751835994582118
5.849577621,0.55534553527832,0.477034479379654,0.303687810897827,0.792588698227836
5.854577621,0.732134819030762,0.52406370639801,0.008758544921875,0.900411502430958
5.859577621,0.68260383605957,0.498181343078613,-0.0668555498123169,0.847704141865285
5.864577621,0.569629669189453,0.50086259841919,-0.183394908905029,0.780368499574651
5.869577621,0.412447929382324,0.48960018157959,-0.367868065834045,0.738341754281184
5.874577621,0.201065063476563,0.47614648938179,-0.445203542709351,0.682164814060645
5.879577621,-0.0491619110107422,0.366712838411331,-0.455905079841614,0.587149590117639
5.884577621,-0.220693588256836,0.346415936946869,-0.067192554473877,0.416202475539466
5.889577621,-0.206662178039551,0.350154012441635,0.0934104919433594,0.417184141915927
5.894577621,-0.0631341934204102,0.334191530942917,0.128954172134399,0.363729410748821
5.899577621,0.127331733703613,0.341218829154968,0.036786675453186,0.366055896372061
5.904577621,0.285945892333984,0.351422607898712,-0.0331336259841919,0.454269457322271
5.909577621,0.353290557861328,0.337180972099304,-0.0689940452575684,0.493219428348888
5.914577621,0.299543380737305,0.288157373666763,-0.0681138038635254,0.421189267691877
5.919577621,0.127201080322266,0.218453317880631,0.00279867649078369,0.252803875599856
5.924577621,-0.0182504653930664,0.145334392786026,0.0530568361282349,0.155788937583786
5.929577621,-0.10124397277832,0.0806846022605896,0.0929640531539917,0.159382126490724
5.934577621,-0.0975446701049805,0.0396700501441956,0.0440765619277954,0.114155240158773
5.939577621,-0.0110006332397461,0.0498896241188049,-0.0673292875289917,0.0845175809258209
5.944577621,0.0928201675415039,0.0423241257667542,-0.169313073158264,0.197671019288738
5.949577621,0.12677001953125,0.0206316113471985,-0.287540793418884,0.314922227095353
5.954577621,0.121713638305664,-0.0188510417938232,-0.30106258392334,0.325281802388195
5.959577621,0.0428581237792969,-0.0862768292427063,-0.230886101722717,0.250177740829934
5.964577621,-0.0434274673461914,-0.160958707332611,-0.118223071098328,0.204377946281417
5.969577621,-0.102438926696777,-0.233171582221985,0.0135660171508789,0.255042657765382
5.974577621,-0.133760452270508,-0.249153614044189,0.089531421661377,0.296623089876023
5.979577621,-0.14183235168457,-0.276241660118103,0.103342056274414,0.327269692095381
5.984577621,-0.116245269775391,-0.28685462474823,0.0680375099182129,0.316903204844117
5.989577621,-0.0753669738769531,-0.266953051090241,0.00622665882110596,0.277457895036044
5.994577621,-0.09246826171875,-0.282505750656128,0.00330221652984619,0.297272237541752
5.999577621,-0.151595115661621,-0.334149777889252,0.0122729539871216,0.367134551023826
6.004577621,-0.252386093139648,-0.390715837478638,0.0317327976226807,0.466223740399275
6.009577621,-0.321706771850586,-0.438802421092987,0.0926505327224731,0.551930188543216
6.014577621,-0.32692813873291,-0.437105536460876,0.143451809883118,0.564377249416432
6.019577621,-0.294564247131348,-0.434036612510681,0.147665619850159,0.544941292226545
6.024577621,-0.200697898864746,-0.439953088760376,0.0947002172470093,0.492753993454289
6.029577621,-0.0924539566040039,-0.414459526538849,0.0125819444656372,0.424832600628857
6.034577621,-0.0368576049804688,-0.377923011779785,-0.0323600769042969,0.381092456570387
6.039577621,-0.0390033721923828,-0.37092924118042,-0.0968643426895142,0.385347201741146
6.044577621,-0.0677404403686523,-0.37327253818512,-0.118696451187134,0.397504720159296
6.049577621,-0.106575965881348,-0.375397682189941,-0.117712616920471,0.407600437290477
6.054577621,-0.0949535369873047,-0.383782267570496,-0.140260815620422,0.419497436805587
6.059577621,-0.0762386322021484,-0.391914367675781,-0.18130350112915,0.438497617043069
6.064577621,-0.0340366363525391,-0.394007623195648,-0.264425396919251,0.475732372544041
6.069577621,0.00589561462402344,-0.415396869182587,-0.311202168464661,0.519072352235791
6.074577621,0.0174636840820313,-0.437135517597199,-0.341874957084656,0.555221511910627
6.079577621,-0.000615119934082031,-0.482744514942169,-0.352652668952942,0.597834885230794
6.084577621,-0.0492038726806641,-0.518106341362,-0.316897034645081,0.609326622275063
6.089577621,-0.0950784683227539,-0.533723890781403,-0.256715655326843,0.599836673119717
6.094577621,-0.0701780319213867,-0.510809004306793,-0.211892485618591,0.557448850126074
6.099577621,-0.0197982788085938,-0.463272869586945,-0.121127605438232,0.479255276797559
6.104577621,-0.0474605560302734,-0.404175698757172,-0.0115660429000855,0.407117026409996
6.109577621,-0.118356704711914,-0.334144711494446,0.0459256172180176,0.357449521033146
6.114577621,-0.134977340698242,-0.282371997833252,0.120898485183716,0.335513444413228
6.119577621,-0.0840368270874023,-0.229975819587708,0.239633440971375,0.342600717941071
6.124577621,-0.0746307373046875,-0.168004214763641,0.29137909412384,0.344524222111333
6.129577621,-0.0861015319824219,-0.126094102859497,0.33464777469635,0.367834649937823
6.134577621,-0.118260383605957,-0.077085554599762,0.347606182098389,0.375176970097578
6.139577621,-0.155811309814453,-0.0515025854110718,0.307213664054871,0.348295730597059
6.144577621,-0.156918525695801,-0.0276522040367126,0.250228643417358,0.296652055582164
6.149577621,-0.14610481262207,-0.00624316930770874,0.183383226394653,0.234552768385384
6.154577621,-0.151861190795898,-0.00171810388565063,0.112573623657227,0.189043894094015
6.159577621,-0.127566337585449,0.00728076696395874,0.0690590143203735,0.145242306203977
6.164577621,-0.120450019836426,0.0224398374557495,0.0325697660446167,0.126777534460317
6.169577621,-0.0937490463256836,0.0318943858146668,0.0299242734909058,0.103448526704968
6.174577621,-0.0586795806884766,0.0514227747917175,0.018203616142273,0.0801184535404319
6.179577621,-0.031041145324707,0.0932590961456299,0.00969445705413818,0.0987663617561361
6.184577621,0.00470256805419922,0.105516105890274,-0.00395488739013672,0.105694862140128
6.189577621,0.0265741348266602,0.138469815254211,-0.0267558097839355,0.143512883517526
6.194577621,0.0648641586303711,0.156872630119324,-0.0503690242767334,0.177068968941399
6.199577621,0.0846853256225586,0.175543814897537,-0.062942385673523,0.204814499581583
6.204577621,0.085566520690918,0.167023807764053,-0.0574526786804199,0.196263578156285
6.209577621,0.0988798141479492,0.168423354625702,-0.0933594703674316,0.21647086348189
6.214577621,0.102882385253906,0.133074522018433,-0.108772754669189,0.200312570160465
6.219577621,0.129680633544922,0.121329516172409,-0.116495132446289,0.212388874696679
6.224577621,0.137996673583984,0.111875742673874,-0.127386689186096,0.218601537736748
6.229577621,0.133749008178711,0.0929224193096161,-0.126183152198792,0.206023205241459
6.234577621,0.126401901245117,0.0919860899448395,-0.110958099365234,0.19170441099898
6.239577621,0.106533050537109,0.0831846594810486,-0.0692168474197388,0.151855030856563
6.244577621,0.0963973999023438,0.0790082812309265,-0.0224837064743042,0.126650243852194
6.249577621,0.0664701461791992,0.0411810874938965,0.312790155410767,0.322415637992569
6.254577621,0.0239191055297852,-0.00268369913101196,0.314337968826294,0.315258123600663
6.259577621,0.0799350738525391,0.0625094175338745,-0.355678081512451,0.3698701677354
6.264577621,0.0944194793701172,0.129390209913254,-0.405662775039673,0.436141205985869
6.269577621,0.0721807479858398,0.104743421077728,-0.147241592407227,0.194579883784212
6.274577621,0.0238742828369141,0.0721105337142944,0.159446239471436,0.176615440251185
6.279577621,0.101689338684082,0.101147800683975,-0.0335320234298706,0.147295606792981
6.284577621,0.111393928527832,0.119744569063187,-0.0719985961914063,0.178692940505564
6.289577621,0.0998420715332031,0.148476541042328,-0.00832533836364746,0.179117374218149
6.294577621,0.0717239379882813,0.139984428882599,0.0364507436752319,0.161457797348445
6.299577621,0.0725564956665039,0.160029530525208,-0.00365531444549561,0.175747708455095
6.304577621,0.0586185455322266,0.167057365179062,-0.027357816696167,0.179144487147289
6.309577621,0.0213241577148438,0.178569912910461,-0.0238789319992065,0.181417024814431
6.314577621,0.0288181304931641,0.179471790790558,-0.001808762550354,0.18177975672955
6.319577621,0.0600776672363281,0.161639750003815,0.00485873222351074,0.172511860927516
6.324577621,0.0633602142333984,0.144186794757843,-0.0140062570571899,0.15811553929641
6.329577621,0.0242624282836914,0.163349628448486,-0.0174751281738281,0.166063682499129
6.334577621,0.0288095474243164,0.18410986661911,-0.0182281732559204,0.18723968412051
6.339577621,0.0479907989501953,0.161474943161011,-0.0130555629730225,0.168960710750376
6.344577621,0.0254354476928711,0.196188896894455,-0.0106981992721558,0.198119904935538
6.349577621,0.0476837158203125,0.19849681854248,-0.0291627645492554,0.206216368317537
6.354577621,0.083012580871582,0.170344173908234,-0.0163192749023438,0.190196069624947
6.359577621,0.0402154922485352,0.187091946601868,-0.0192149877548218,0.19232758006715
6.364577621,0.0286455154418945,0.204376429319382,-0.0101004838943481,0.206621175563329
6.369577621,0.0296144485473633,0.223952740430832,0.00684380531311035,0.22600593616188
6.374577621,-0.0236692428588867,0.221432745456696,-0.00373744964599609,0.222725531423452
6.379577621,-0.0481081008911133,0.167847275733948,0.0184447765350342,0.175577068901622
6.384577621,-0.062220573425293,0.0937060713768005,0.00705802440643311,0.112703341914817
6.389577621,-0.0858011245727539,0.0130342841148376,-0.006317138671875,0.0870151238655399
6.394577621,-0.102207183837891,-0.0813570618629456,-0.0313936471939087,0.134353418368046
6.399577621,-0.188179969787598,-0.154014885425568,-0.0477149486541748,0.247808398338278
6.404577621,-0.231776237487793,-0.196085870265961,-0.0843095779418945,0.315084112126742
6.409577621,-0.19614315032959,-0.178963363170624,-0.0971040725708008,0.2827175652279
6.414577621,-0.221477508544922,-0.139481425285339,-0.125560402870178,0.290297725722778
6.419577621,-0.334197998046875,-0.100426733493805,-0.157678246498108,0.382931142788743
6.424577621,-0.38719654083252,-0.057500422000885,-0.209142684936523,0.443810908411912
6.429577621,-0.325554847717285,-0.0360069274902344,-0.182068586349487,0.374741814900356
6.434577621,-0.333045959472656,0.0360162854194641,-0.0407586097717285,0.337458216979529
6.439577621,-0.43325138092041,0.113621383905411,0.0670484304428101,0.452893000580565
6.444577621,-0.513669013977051,0.162218362092972,0.077120304107666,0.544167432162144
6.449577621,-0.49655818939209,0.192455470561981,-0.0456409454345703,0.534501861083519
6.454577621,-0.361711502075195,0.174021035432816,-0.0235074758529663,0.402083489996271
6.459577621,-0.16408634185791,0.158120959997177,0.0505603551864624,0.233415755876336
6.464577621,0.0854206085205078,0.133420258760452,0.19966459274292,0.254879570391422
6.469577621,0.337381362915039,0.104832142591476,0.417759418487549,0.547118720112723
6.474577621,0.509889602661133,0.0786861181259155,0.7001131772995,0.869676591105023
6.479577621,0.550382614135742,0.0614797472953796,0.926006078720093,1.07897545806054
6.484577621,0.410595893859863,0.0235939025878906,1.02209866046906,1.10174013815715
6.489577621,0.183872222900391,0.0150154232978821,0.963636994361877,0.981137459377603
6.494577621,0.0788202285766602,0.0806260108947754,0.82608962059021,0.833748909032305
6.499577621,0.0368556976318359,0.161901712417603,0.639687180519104,0.660885917426118
6.504577621,-0.0407066345214844,0.260276347398758,0.489672183990479,0.556039256602724
6.509577621,-0.0769062042236328,0.303627043962479,0.427958846092224,0.530332650345109
6.514577621,-0.121158599853516,0.316822707653046,0.385783910751343,0.513697634993263
6.519577621,-0.116854667663574,0.332805126905441,0.358959555625916,0.503255629302312
6.524577621,-0.035552978515625,0.313859313726425,0.344017267227173,0.467032721813587
6.529577621,0.0885124206542969,0.311098277568817,0.33823037147522,0.467991849399787
6.534577621,0.246636390686035,0.282918840646744,0.274061918258667,0.464739189915325
6.539577621,0.402862548828125,0.254277259111404,0.153186440467834,0.500421065996134
6.544577621,0.423084259033203,0.27864670753479,0.173656463623047,0.535537902691972
6.549577621,0.420195579528809,0.322718411684036,0.200270533561707,0.56640955580614
6.554577621,0.45830249786377,0.342633932828903,0.196839332580566,0.605132146167046
6.559577621,0.481468200683594,0.368348181247711,0.181516289710999,0.632803424712952
6.564577621,0.49046802520752,0.403557777404785,0.185904145240784,0.661799149797399
6.569577621,0.476609230041504,0.435218632221222,0.207212805747986,0.677870756751771
6.574577621,0.466860771179199,0.458947360515595,0.183597445487976,0.679926232307578
6.579577621,0.453293800354004,0.484968364238739,0.156992793083191,0.682140983105278
6.584577621,0.443610191345215,0.484494745731354,0.144715785980225,0.672657282141881
6.589577621,0.450225830078125,0.482758283615112,0.129363536834717,0.672676581375428
6.594577621,0.425234794616699,0.469213783740997,0.108976125717163,0.642543384824381
6.599577621,0.386284828186035,0.462540090084076,0.073665976524353,0.607112822726539
6.604577621,0.366000175476074,0.417603611946106,0.0715707540512085,0.559885057841705
6.609577621,0.319461822509766,0.360303193330765,0.0738977193832398,0.487170524658103
6.614577621,0.25723934173584,0.304009228944778,0.0779324769973755,0.405792017160556
6.619577621,0.185656547546387,0.270843207836151,0.0743067264556885,0.336668808288473
6.624577621,0.0721511840820313,0.218876123428345,0.123030304908752,0.261245108465976
6.629577621,-0.0334329605102539,0.175721913576126,0.149940490722656,0.233405450916397
6.634577621,-0.118916511535645,0.13066291809082,0.156886339187622,0.236277925975977
6.639577621,-0.184528350830078,0.0942695736885071,0.16488254070282,0.26480883106894
6.644577621,-0.237995147705078,0.0572750866413116,0.150076746940613,0.28713264504965
6.649577621,-0.252701759338379,0.00593364238739014,0.105880260467529,0.274051120854058
6.654577621,-0.235719680786133,-0.0389342308044434,0.0856302976608276,0.25379556756518
6.659577621,-0.247007369995117,-0.0944106578826904,0.0316131114959717,0.266318234396753
6.664577621,-0.259419441223145,-0.134032487869263,-0.0229188203811646,0.292896614211596
6.669577621,-0.267513275146484,-0.171676754951477,-0.0819085836410523,0.328245756475771
6.674577621,-0.262485504150391,-0.223860383033752,-0.139238119125366,0.372020651037913
6.679577621,-0.256811141967773,-0.255050420761108,-0.191688776016235,0.409569611445738
6.684577621,-0.256003379821777,-0.249024927616119,-0.216068029403687,0.417416504686601
6.689577621,-0.270018577575684,-0.283211290836334,-0.249711990356445,0.464192573853735
6.694577621,-0.267332077026367,-0.304127871990204,-0.274454712867737,0.489168264857639
6.699577621,-0.264720916748047,-0.328119874000549,-0.290934920310974,0.512233289951381
6.704577621,-0.251250267028809,-0.339026987552643,-0.313200235366821,0.525509640639351
6.709577621,-0.217422485351563,-0.346342384815216,-0.329125761985779,0.524927949206995
6.714577621,-0.188908576965332,-0.352438092231751,-0.346694469451904,0.529241074044296
6.719577621,-0.170280456542969,-0.356580257415772,-0.298425078392029,0.49517920117112
6.724577621,-0.149559020996094,-0.355728089809418,-0.295892238616943,0.486274193757507
6.729577621,-0.116351127624512,-0.36489200592041,-0.296954870223999,0.484629710019793
6.734577621,-0.0889415740966797,-0.371547281742096,-0.270294189453125,0.467992451888764
6.739577621,-0.0327167510986328,-0.389336168766022,-0.257397294044495,0.467874347547803
6.744577621,0.0113182067871094,-0.393893957138062,-0.260252356529236,0.472241294629956
6.749577621,0.0443544387817383,-0.406145751476288,-0.278384327888489,0.494388027460018
6.754577621,0.0592079162597656,-0.417979001998901,-0.28371012210846,0.508628997253025
6.759577621,0.0663833618164063,-0.417137086391449,-0.292354106903076,0.513693511144817
6.764577621,0.0438108444213867,-0.405527353286743,-0.296486854553223,0.504258147455775
6.769577621,0.0139961242675781,-0.363114833831787,-0.342945218086243,0.499659580766166
6.774577621,-0.0241613388061523,-0.366157591342926,-0.330557346343994,0.493885929353067
6.779577621,-0.0400257110595703,-0.36412113904953,-0.309037029743195,0.479259999583783
6.784577621,-0.0376863479614258,-0.361789524555206,-0.272055149078369,0.454231136141729
6.789577621,-0.044001579284668,-0.348413944244385,-0.238621830940247,0.424580726982219
6.794577621,-0.0245952606201172,-0.337474048137665,-0.205782532691956,0.39603044172451
6.799577621,0.00521183013916016,-0.32214492559433,-0.197829723358154,0.378075542323938
6.804577621,-0.00465011596679688,-0.294387578964233,-0.174272179603577,0.342135152842716
6.809577621,-0.0198020935058594,-0.260490775108337,-0.156499743461609,0.30453199590077
6.814577621,-0.0285530090332031,-0.228733599185944,-0.146220088005066,0.272973712759334
6.819577621,-0.0312738418579102,-0.192100524902344,-0.122343301773071,0.22988812135699
6.824577621,-0.0171327590942383,-0.171598851680756,-0.140561580657959,0.222479786248996
6.829577621,-0.0122318267822266,-0.141288280487061,-0.142121911048889,0.200775081595324
6.834577621,-0.0208539962768555,-0.106227040290833,-0.117053270339966,0.159438205418107
6.839577621,-0.00629043579101563,-0.0860417485237122,-0.0975500345230103,0.130225808912439
6.844577621,0.0100107192993164,-0.074945330619812,-0.0665490627288818,0.100726336341075
6.849577621,0.0267219543457031,-0.0632011890411377,-0.0474320650100708,0.0834161491042775
6.854577621,0.0547637939453125,-0.0732800364494324,-0.0178757905960083,0.0932125568727042
6.859577621,0.0885133743286133,-0.0703808069229126,0.00152683258056641,0.113094679962793
6.864577621,0.120652198791504,-0.096389651298523,0.0295535326004028,0.157230179163666
6.869577621,0.133684158325195,-0.101286232471466,0.0584871768951416,0.17762630699461
6.874577621,0.141209602355957,-0.1026691198349,0.0478389263153076,0.181023928904999
6.879577621,0.144704818725586,-0.0957133173942566,0.0538202524185181,0.181651158155987
6.884577621,0.104275703430176,-0.0882939100265503,0.0598603487014771,0.149172712720179
