Time (s),Linear Acceleration x (m/s^2),Linear Acceleration y (m/s^2),Linear Acceleration z (m/s^2),Absolute acceleration (m/s^2)
0.018397396,0.0747594833374023,-0.0138875246047974,0.0120183229446411,0.0769823601542969
0.023397396,0.128684043884277,-0.0267748832702637,0.0166410207748413,0.132489248986382
0.028397396,0.190901756286621,-0.0444689989089966,0.0142905712127686,0.196532930683059
0.033397396,0.210659027099609,-0.0383462905883789,-0.00530660152435303,0.214186422819423
0.038397396,0.223992347717285,-0.0407122373580933,0.0114454030990601,0.22794967725071
0.043397396,0.203267097473145,-0.034659743309021,-0.0106838941574097,0.206477495906384
0.048397396,0.165297508239746,-0.0177229642868042,-0.00888335704803467,0.166482082296634
0.053397396,0.101399421691895,-0.00956344604492188,-0.0111454725265503,0.102457424218769
0.058397396,0.0250511169433594,-0.0184632539749146,-0.0321381092071533,0.0447359840716953
0.063397396,-0.0425100326538086,0.0020984411239624,-0.0476862192153931,0.0639177740103419
0.068397396,-0.0874862670898438,0.0154688358306885,-0.0435376167297363,0.0989376363260094
0.073397396,-0.121017456054688,0.019782543182373,-0.0405956506729126,0.12916880636697
0.078397396,-0.143918991088867,0.0358543395996094,-0.0478909015655518,0.155858102506488
0.083397396,-0.150740623474121,0.0307906866073608,-0.0279456377029419,0.156370587431728
0.088397396,-0.138964653015137,0.0313514471054077,-0.0316677093505859,0.145934683467412
0.093397396,-0.0880661010742188,0.0186090469360352,-0.039942741394043,0.0984751612151687
0.098397396,-0.0339927673339844,0.00425851345062256,-0.00651824474334717,0.0348730652849115
0.103397396,0.0370626449584961,-0.00521552562713623,-0.00444746017456055,0.0376911297375278
0.108397396,0.109681129455566,-0.019492506980896,0.0275182723999023,0.114748260566007
0.113397396,0.165663719177246,-0.0355209112167358,0.040906548500061,0.174297299736664
0.118397396,0.217378616333008,-0.0450382232666016,0.0282069444656372,0.223780106600102
0.123397396,0.230203628540039,-0.045175313949585,0.0493890047073364,0.239736925335721
0.128397396,0.223541259765625,-0.0354601144790649,0.0310077667236328,0.228450423798377
0.133397396,0.183259010314941,-0.027288556098938,0.0361357927322388,0.188770563573784
0.138397396,0.109550476074219,0.00413417816162109,0.0240284204483032,0.112230847926942
0.143397396,0.0416269302368164,0.0160187482833862,0.00285804271697998,0.0446941833539819
0.148397396,-0.0646581649780273,0.0256909132003784,-0.00328075885772705,0.0696524565114378
0.153397396,-0.15789794921875,0.0490027666091919,-0.0405205488204956,0.170220293677211
0.158397396,-0.257179260253906,0.0606616735458374,-0.0475106239318848,0.268473965085118
0.163397396,-0.355057716369629,0.0898363590240479,-0.0676596164703369,0.372443790466731
0.168397396,-0.428627014160156,0.0882806777954102,-0.0778164863586426,0.444488471041795
0.173397396,-0.457891464233398,0.107035756111145,-0.0997860431671143,0.480706251795251
0.178397396,-0.475471496582031,0.10599148273468,-0.0850911140441895,0.49451778144323
0.183397396,-0.459059715270996,0.0903780460357666,-0.101018786430359,0.478653119285557
0.188397396,-0.416782379150391,0.0850049257278442,-0.088324785232544,0.434436021359453
0.193397396,-0.321212768554688,0.104794979095459,0.107474684715271,0.354556678375731
0.198397396,-0.217954635620117,0.097739577293396,0.29938542842865,0.382999847145134
0.203397396,-0.103047370910645,0.0628564357757568,0.2499178647995,0.277540323765698
0.208397396,-0.0367527008056641,0.0149370431900024,0.0598042011260986,0.0717664179690022
0.213397396,0.0261039733886719,-0.00671839714050293,-0.0535235404968262,0.0599276536678135
0.218397396,0.115133285522461,-0.0153988599777222,-0.0477173328399658,0.125577634064232
0.223397396,0.195501327514648,-0.0337573289871216,-0.035520076751709,0.201549006876198
0.228397396,0.263415336608887,-0.0457245111465454,-0.0244646072387695,0.268471390445446
0.233397396,0.285684585571289,-0.0537559986114502,-0.0148395299911499,0.291076624740139
0.238397396,0.291435241699219,-0.0496369600296021,0.019292950630188,0.296260942159579
0.243397396,0.288257598876953,-0.0423988103866577,0.0166469812393188,0.291834241337257
0.248397396,0.268979072570801,-0.0363575220108032,0.0183844566345215,0.272047053160957
0.253397396,0.213271141052246,-0.0144670009613037,0.0110474824905396,0.214046538378737
0.258397396,0.161904335021973,0.00255715847015381,0.0058588981628418,0.162030489248262
0.263397396,0.0919580459594727,-0.00135612487792969,0.0184239149093628,0.0937953193499359
0.268397396,0.0193967819213867,0.00908553600311279,0.00456142425537109,0.0218995137984198
0.273397396,-0.0406160354614258,0.0167951583862305,0.0106246471405029,0.045217505555731
0.278397396,-0.0903968811035156,0.0312565565109253,0.0016326904296875,0.0956620829597757
0.283397396,-0.146990776062012,0.0371092557907105,0.00669944286346436,0.151750675936991
0.288397396,-0.177534103393555,0.0229647159576416,0.0326567888259888,0.181967584759467
0.293397396,-0.194169044494629,0.0369298458099365,0.0166364908218384,0.198348693412304
0.298397396,-0.190025329589844,0.0386644601821899,0.0245332717895508,0.19546469704683
0.303397396,-0.184929847717285,0.0349464416503906,0.0256350040435791,0.189940663874476
0.308397396,-0.169476509094238,0.0385754108428955,0.0297504663467407,0.176338990879261
0.313397396,-0.149797439575195,0.0319408178329468,0.0436267852783203,0.159256978311289
0.318397396,-0.126062393188477,0.0264551639556885,0.061620831489563,0.142789108652563
0.323397396,-0.072662353515625,0.0329736471176147,0.0717852115631104,0.107332174215503
0.328397396,-0.0419521331787109,0.0167497396469116,0.0621058940887451,0.0767963367423606
0.333397396,-0.0193367004394531,0.0193651914596558,0.0827207565307617,0.0871300303292489
0.338397396,0.0095367431640625,0.0105184316635132,0.0905218124389648,0.0916285184976404
0.343397396,0.0175552368164063,0.0129753351211548,0.0833277702331543,0.0861397872833207
0.348397396,-0.00176715850830078,0.00467050075531006,0.0725276470184326,0.0726993535633514
0.353397396,-0.000957489013671875,0.0161477327346802,0.0744662284851074,0.0762029214825665
0.358397396,-0.00113582611083984,0.0147024393081665,0.0754165649414063,0.0768447141326307
0.363397396,-0.0255184173583984,0.0110708475112915,0.0809050798416138,0.0855534057374315
0.368397396,-0.0365571975708008,0.00665867328643799,0.0696874856948853,0.0789753903861255
0.373397396,-0.051849365234375,0.0149911642074585,0.0668507814407349,0.0859192566235271
0.378397396,-0.0582122802734375,0.0139575004577637,0.0814975500106812,0.101120383955982
0.383397396,-0.0573654174804688,0.00405788421630859,0.0476090908050537,0.0746584427530155
0.388397396,-0.038304328918457,0.00532436370849609,0.0547984838485718,0.0670704427814211
0.393397396,-0.0375614166259766,0.00233447551727295,0.0474824905395508,0.0605879253872376
0.398397396,-0.0161361694335938,-0.00161147117614746,0.0543367862701416,0.0567050186977154
0.403397396,0.00998020172119141,-0.0229272842407227,0.0560801029205322,0.0614023023397987
0.408397396,0.0202646255493164,-0.0205113887786865,0.043574333190918,0.0522503074758185
0.413397396,0.0153446197509766,-0.0349310636520386,0.0352092981338501,0.0519165796084755
0.418397396,0.0300016403198242,-0.0407388210296631,0.0452098846435547,0.0678504504793487
0.423397396,0.0352973937988281,-0.0338147878646851,0.0470160245895386,0.0678222121102467
0.428397396,0.0351238250732422,-0.0325154066085815,0.024094820022583,0.0535863332074305
0.433397396,0.0260066986083984,-0.0281839370727539,0.0367387533187866,0.0531076141136813
0.438397396,0.000574111938476563,-0.0255604982376099,0.0152833461761475,0.0297867310226
0.443397396,-0.00646877288818359,-0.0123587846755981,0.0263569355010986,0.0298206745454521
0.448397396,-0.00301074981689453,-0.0121161937713623,0.0250319242477417,0.0279725579364814
0.453397396,-0.0207052230834961,-0.00614821910858154,0.0132820606231689,0.0253558670832216
0.458397396,-0.0389194488525391,0.00477385520935059,0.00895905494689941,0.0402216093423276
0.463397396,-0.04986572265625,0.0109002590179443,-0.00674426555633545,0.0514868047229841
0.468397396,-0.0472145080566406,0.0117164850234985,-0.00432968139648438,0.0488388363224546
0.473397396,-0.0609188079833984,0.0164749622344971,-0.0235869884490967,0.067371147910987
0.478397396,-0.0663137435913086,0.0115008354187012,-0.0160230398178101,0.0691846775624849
0.483397396,-0.0716953277587891,0.0134873390197754,-0.033385157585144,0.0802290289313005
0.488397396,-0.0732078552246094,0.00919520854949951,-0.0319887399673462,0.0804190363754419
0.493397396,-0.054387092590332,0.0034029483795166,-0.0355808734893799,0.0650809838306879
0.498397396,-0.0343770980834961,-0.00514662265777588,-0.0368459224700928,0.0506546602011694
0.503397396,-0.0351171493530273,-0.0206001996994019,0.029330849647522,0.0501784928767655
0.508397396,-0.0237236022949219,-0.00850009918212891,0.153824210166931,0.155874785085446
0.513397396,0.016845703125,-0.0248823165893555,0.187003254890442,0.189402018817773
0.518397396,0.0341911315917969,-0.0223945379257202,0.108889102935791,0.116307289309808
0.523397396,0.0355138778686523,-0.000882625579833984,-0.0212767124176025,0.041409093693114
0.528397396,0.02203369140625,-0.00159597396850586,-0.0725585222244263,0.075847016007794
0.533397396,0.0227012634277344,-0.00368618965148926,-0.0605258941650391,0.06474812136147
0.538397396,0.0189447402954102,-0.00274276733398438,-0.0568296909332275,0.0599669886610548
0.543397396,0.00501537322998047,-0.00159561634063721,-0.0684837102890015,0.0686856501395335
0.548397396,-0.014491081237793,0.00410139560699463,-0.067808985710144,0.069461294433691
0.553397396,-0.0163488388061523,0.00930190086364746,-0.062867283821106,0.0656209209401253
0.558397396,-0.0187807083129883,0.00188004970550537,-0.0588822364807129,0.0618333839006351
0.563397396,-0.0177698135375977,0.0112420320510864,-0.0611485242843628,0.0646629072958675
0.568397396,-0.0422134399414063,0.0166926383972168,-0.0671281814575195,0.0810358651100895
0.573397396,-0.0359401702880859,0.0086522102355957,-0.0597280263900757,0.0702423926041186
0.578397396,-0.0285253524780273,0.00438714027404785,-0.0518186092376709,0.0593136661917496
0.583397396,-0.0143842697143555,0.00838661193847656,-0.0461525917053223,0.0490642863612639
0.588397396,-0.0201225280761719,-0.00629711151123047,-0.0338596105575562,0.039887880072405
0.593397396,-0.00687980651855469,-0.0117859840393066,-0.0342175960540772,0.0368386351162409
0.598397396,-0.00382614135742188,-0.0119175910949707,-0.0339729785919189,0.0362054085683463
0.603397396,-0.0106325149536133,0.000685334205627441,-0.0210493803024292,0.0235922968006192
0.608397396,-0.00454235076904297,-0.0124411582946777,-0.0232948064804077,0.0267967046328816
0.613397396,0.000630378723144531,-0.00472128391265869,-0.0153154134750366,0.0160390083555641
0.618397396,-0.00475215911865234,-0.00691008567810059,-0.0166479349136353,0.0186409773685909
0.623397396,-0.00156116485595703,-0.0121386051177979,-0.00225687026977539,0.0124449360515794
0.628397396,-0.0127019882202148,-0.00373446941375732,-0.0025942325592041,0.013491360536284
0.633397396,-0.01251220703125,-0.0138891935348511,0.00712227821350098,0.0200047961447229
0.638397396,-0.0123052597045898,-0.00541770458221436,0.00678646564483643,0.0150607787078256
0.643397396,-0.0285263061523438,-0.0223244428634644,0.0242208242416382,0.0435749838646632
0.648397396,-0.00842189788818359,-0.0110057592391968,0.0214264392852783,0.0255175900295438
0.653397396,-0.0237674713134766,-0.00799465179443359,0.0275181531906128,0.0372297717555884
0.658397396,-0.0178976058959961,-0.0133310556411743,0.0293415784835815,0.0368642044431269
0.663397396,-0.0120811462402344,-0.0168759822845459,0.0375325679779053,0.0428887692940975
0.668397396,-0.0108051300048828,-0.00445926189422607,0.0477017164230347,0.0491130288290931
0.673397396,-0.0101089477539063,-0.0189180374145508,0.0572870969772339,0.0611710261838769
0.678397396,-0.00974082946777344,-0.0258891582489014,0.0605297088623047,0.0665505667031639
0.683397396,-0.0219955444335938,-0.020134449005127,0.0533108711242676,0.0610839503609461
0.688397396,-0.018498420715332,-0.0262854099273682,0.0566723346710205,0.0651526504531885
0.693397396,-0.0222835540771484,-0.0202232599258423,0.063406229019165,0.0701846628742219
0.698397396,-0.01953125,-0.0216914415359497,0.0538744926452637,0.0612735613478978
0.703397396,-0.033482551574707,-0.0176073312759399,0.0705078840255737,0.0800153802988986
0.708397396,-0.030400276184082,-0.0215963125228882,0.0565841197967529,0.067766806917753
0.713397396,-0.0348443984985352,-0.0192207098007202,0.0466626882553101,0.0613267826253789
0.718397396,-0.0380163192749023,-0.019641637802124,0.0700035095214844,0.0820458762649634
0.723397396,-0.0134286880493164,-0.028875470161438,0.0716862678527832,0.0784413375614601
0.728397396,-0.0136909484863281,-0.0117670297622681,0.0450962781906128,0.0485755017115267
0.733397396,-0.00649642944335938,-0.0107128620147705,0.0357096195220947,0.0378437040268633
0.738397396,-0.0201807022094727,0.00102007389068604,0.033307671546936,0.0389576985496891
0.743397396,-0.0210332870483398,0.005287766456604,0.0253015756607056,0.0333246060602651
0.748397396,-0.0154647827148438,-0.00363755226135254,0.0111280679702759,0.0193965251429858
0.753397396,-0.0178747177124023,-0.0060044527053833,0.00182127952575684,0.0189440239838371
0.758397396,-0.02337646484375,-0.0115363597869873,-0.00732123851776123,0.0270766918060506
0.763397396,-0.0147275924682617,-0.00649666786193848,0.00461935997009277,0.0167465566536181
0.768397396,-0.0154056549072266,0.0121170282363892,-0.00669360160827637,0.0207113707632384
0.773397396,-0.0116643905639648,0.00516033172607422,-0.00424158573150635,0.0134416546700754
0.778397396,-0.0140161514282227,-0.00238478183746338,-0.0143256187438965,0.0201832365508271
0.783397396,-0.0140495300292969,0.00124526023864746,0.00410342216491699,0.0146893853026464
0.788397396,0.00903701782226563,0.00732851028442383,-0.0111061334609985,0.0160848050831325
0.793397396,-0.0124111175537109,0.0081636905670166,-0.0220925807952881,0.0266226183686421
0.798397396,-0.00306606292724609,0.011850118637085,-0.00312924385070801,0.012634010474272
0.803397396,-0.000151634216308594,0.00665163993835449,-0.0147838592529297,0.0162120264376636
0.808397396,-0.000267982482910156,0.0021740198135376,-0.0217598676681519,0.0218698426536699
0.813397396,-0.00453758239746094,0.014582633972168,0.00822579860687256,0.0173466604941931
0.818397396,-0.0100908279418945,0.0050652027130127,0.0511825084686279,0.0524130733712306
0.823397396,-0.00932598114013672,-0.0235644578933716,0.0477724075317383,0.0540782814206697
0.828397396,0.0112190246582031,-0.00858914852142334,0.015343189239502,0.0208579347645832
0.833397396,0.00616264343261719,-0.0000739097595214844,-0.00998294353485107,0.011732126761596
0.838397396,-0.00354862213134766,0.00203096866607666,-0.0472564697265625,0.0474330210272463
0.843397396,-0.00898933410644531,0.0148489475250244,-0.0350785255432129,0.0391382463143671
0.848397396,-0.0144138336181641,-0.0116004943847656,-0.0184524059295654,0.0261308506201493
0.853397396,-0.0164108276367188,-0.000364542007446289,-0.0241416692733765,0.0291936354348405
0.858397396,-0.00514793395996094,0.00493752956390381,-0.0343174934387207,0.035050973997411
0.863397396,-0.00499725341796875,0.00208163261413574,-0.0256365537643433,0.0262018820884244
0.868397396,-0.00536537170410156,0.0021216869354248,-0.0239392518997192,0.0246247142215567
0.873397396,-0.0216169357299805,0.00206935405731201,-0.0312323570251465,0.0380399035476542
0.878397396,0.00379657745361328,-0.0191155672073364,-0.0221904516220093,0.0295336258053124
0.883397396,-0.0110197067260742,0.00444400310516357,-0.0233134031295776,0.0261667320353457
0.888397396,-0.00185489654541016,-0.00466692447662354,-0.0226266384124756,0.0231772645304315
0.893397396,0.000872611999511719,-0.00445449352264404,-0.0113853216171265,0.0122568149439557
0.898397396,-0.00276947021484375,0.00482833385467529,-0.00399768352508545,0.00685304652325153
0.903397396,-0.0127296447753906,-0.0108764171600342,-0.0120316743850708,0.0206179895929522
0.908397396,-0.00731849670410156,-0.00657498836517334,-0.0117381811141968,0.0153158663444089
0.913397396,-0.00410747528076172,-0.00226044654846191,-0.00233471393585205,0.00523754340724578
0.918397396,-0.0133190155029297,-0.00864613056182861,0.00695133209228516,0.0173341502680893
0.923397396,-0.00788974761962891,-0.010391116142273,0.00805389881134033,0.0153326024616487
0.928397396,-0.00769138336181641,-0.00663971900939941,0.0186425447463989,0.0212317620833433
0.933397396,-0.00292491912841797,-0.00200057029724121,0.0123907327651978,0.0128875013823679
0.938397396,-0.000367164611816406,-0.00243639945983887,0.0141453742980957,0.0143583587576471
0.943397396,-0.0137872695922852,-0.0122717618942261,0.03069007396698,0.035812924802334
0.948397396,-0.0113954544067383,-0.0186084508895874,0.0250134468078613,0.0331934232470221
0.953397396,-0.013087272644043,-0.00787818431854248,0.0293529033660889,0.0330898085433475
0.958397396,-0.0227298736572266,-0.0099719762802124,0.0336533784866333,0.0418167113839813
0.963397396,-0.0110397338867188,-0.0107583999633789,0.0333689451217651,0.0367573855517632
0.968397396,-0.00879764556884766,0.00469005107879639,0.0338085889816284,0.0352479195925869
0.973397396,-0.016972541809082,-0.0138291120529175,0.0394289493560791,0.0450993743078264
0.978397396,-0.00779914855957031,-0.0105332136154175,0.028416633605957,0.0312934557506433
0.983397396,-0.0148963928222656,-0.0104994773864746,0.0333809852600098,0.0380319828753817
0.988397396,-0.0147476196289063,-0.0143325328826904,0.0433093309402466,0.0479438414193534
0.993397396,-0.0146389007568359,-0.0102794170379639,0.0295521020889282,0.0345440380946309
0.998397396,-0.0153894424438477,-0.0110734701156616,0.0311788320541382,0.0364907693450701
1.003397396,-0.0192203521728516,-0.0116310119628906,0.0308284759521484,0.0381457377233884
1.008397396,-0.0191287994384766,-0.00782346725463867,0.0105739831924438,0.0232147954631513
1.013397396,-0.00601387023925781,-0.00683069229125977,0.00638937950134277,0.0111197645139043
1.018397396,-0.0204458236694336,-0.00939369201660156,0.0191460847854614,0.029543962459975
1.023397396,-0.0190439224243164,-0.00541961193084717,0.0162711143493652,0.0256279600622929
1.028397396,-0.0152521133422852,-0.00817370414733887,-0.00524365901947022,0.0180812709953313
1.033397396,-0.00522518157958984,-0.00401508808135986,0.0148196220397949,0.0162186513694308
1.038397396,-0.00406932830810547,-0.00745415687561035,0.0118614435195923,0.0145882737146598
1.043397396,-0.00543689727783203,-0.00522339344024658,0.00784814357757568,0.0108828786934134
1.048397396,0.00704860687255859,-0.00098717212677002,0.00971686840057373,0.0120447041958622
1.053397396,-0.000715255737304688,-0.00942873954772949,-0.0176002979278564,0.019979569749571
1.058397396,-0.00876808166503906,-0.000341057777404785,-0.0135505199432373,0.016143486836009
1.063397396,-0.00319671630859375,-0.00405502319335938,-0.0186425447463989,0.0193444225263459
1.068397396,-0.000317573547363281,-0.00456976890563965,-0.0184776782989502,0.0190370227748046
1.073397396,0.0030975341796875,0.00653254985809326,-0.0124768018722534,0.0144201078568183
1.078397396,-0.00421714782714844,-0.00376641750335693,-0.0151354074478149,0.0161570664174221
1.083397396,-0.00517368316650391,-0.00111532211303711,-0.0149191617965698,0.0158301083267116
1.088397396,-0.00402355194091797,-0.0110491514205933,-0.00785136222839356,0.0141391868994616
1.093397396,0.0015411376953125,-0.00868713855743408,-0.00427520275115967,0.00980402163785323
1.098397396,-0.00397491455078125,-0.00574040412902832,-0.00409209728240967,0.00809304920405668
1.103397396,-0.00283050537109375,-0.0025637149810791,0.000194072723388672,0.00382388014743709
1.108397396,-0.00485515594482422,-0.000184297561645508,-0.0257517099380493,0.0262060502474756
1.113397396,-0.006103515625,-0.013136625289917,-0.0188549757003784,0.0237767519996775
1.118397396,-0.0134973526000977,-0.00633060932159424,-0.0207433700561523,0.0255449122699706
1.123397396,-0.0037994384765625,-0.0135833024978638,-0.0026247501373291,0.0143468168165996
1.128397396,-0.00432491302490234,-0.00289750099182129,-0.00213873386383057,0.00562801627670629
1.133397396,-0.00270652770996094,0.0134965181350708,-0.0199753046035767,0.0242588970899493
1.138397396,-0.00953483581542969,0.000897645950317383,-0.0158028602600098,0.018478345561135
1.143397396,-0.0179557800292969,0.009255051612854,0.00112080574035645,0.0202317132819913
1.148397396,-0.00523948669433594,0.00112879276275635,0.00883519649505615,0.0103337839646292
1.153397396,-0.00956439971923828,-0.0107364654541016,-0.00657892227172852,0.0158123891519886
1.158397396,-0.00882434844970703,0.00854325294494629,-0.00874888896942139,0.0150797663988022
1.163397396,-0.00143909454345703,0.0100624561309814,0.0141133069992065,0.0173927988244212
1.168397396,-0.000455856323242188,0.00436913967132568,0.0152959823608398,0.015914278583653
1.173397396,-0.0133953094482422,-0.000626921653747559,0.0135282278060913,0.0190483672147406
1.178397396,-0.00645923614501953,-0.00350141525268555,0.00343072414398193,0.00810873038773434
1.183397396,-0.00964450836181641,-0.00781714916229248,0.00643420219421387,0.0139829653665703
1.188397396,-0.0156106948852539,0.000879168510437012,-0.00497233867645264,0.0164070376358313
1.193397396,-0.0110349655151367,0.000389218330383301,0.00373852252960205,0.0116575514381582
1.198397396,-0.00910282135009766,0.00425589084625244,-0.00174212455749512,0.0101984783865455
1.203397396,-0.0104198455810547,-0.000419497489929199,0.00709748268127441,0.0126144132042704
1.208397396,-0.0151815414428711,-0.00349760055541992,0.00806152820587158,0.0175413980982403
1.213397396,-0.00857353210449219,-0.000473737716674805,0.00592994689941406,0.0104352360012042
1.218397396,-0.00525951385498047,0.00591909885406494,-0.00580739974975586,0.00981957784675028
1.223397396,-0.00752735137939453,0.00029599666595459,-0.00548064708709717,0.00931590711141087
1.228397396,-0.0128622055053711,-0.00527846813201904,0.00438213348388672,0.0145774363368097
1.233397396,-0.00326919555664063,-0.00828588008880615,0.00394678115844727,0.00974271676414271
1.238397396,-0.00154781341552734,-0.00206995010375977,0.00686347484588623,0.00733401027824849
1.243397396,-0.00330638885498047,-0.0100750923156738,0.0151774883270264,0.0185147466724962
1.248397396,-0.00455760955810547,-0.0178115367889404,0.0105717182159424,0.0212081086781731
1.253397396,-0.00708389282226563,-0.00690722465515137,0.0155370235443115,0.0184198368768718
1.258397396,-0.0123100280761719,0.00463759899139404,0.00258684158325195,0.0134065605215492
1.263397396,-0.005706787109375,0.00270295143127441,0.00806629657745361,0.0102439497278636
1.268397396,-0.00154590606689453,-0.00494539737701416,0.0135310888290405,0.014489207903941
1.273397396,-0.00496864318847656,0.000198125839233398,0.029163122177124,0.0295840221082332
1.278397396,-0.00609493255615234,-0.00551974773406982,0.0263673067092896,0.0276197516464859
1.283397396,0.000905990600585938,-0.0013432502746582,0.0289632081985474,0.0290084913330756
1.288397396,-0.00720405578613281,-0.000667214393615723,0.0150928497314453,0.0167373148334119
1.293397396,-0.00262165069580078,-0.00866806507110596,0.00375461578369141,0.00980334351794654
1.298397396,-0.00628376007080078,-0.00489354133605957,0.00174999237060547,0.0081544381003409
1.303397396,-0.006683349609375,-0.00749695301055908,0.00495648384094238,0.0111999195760142
1.308397396,-0.00242710113525391,-0.00604593753814697,0.000584483146667481,0.00654108562737592
1.313397396,-0.0280227661132813,-0.00471341609954834,0.00468790531158447,0.028800489026708
1.318397396,-0.00245952606201172,-0.0229921340942383,0.00528240203857422,0.0237190065128007
1.323397396,-0.00682353973388672,-0.0151293277740479,0.00718760490417481,0.0180864291017609
1.328397396,-0.00869274139404297,-0.0146797895431519,-0.00217413902282715,0.017198455002282
1.333397396,-0.00311279296875,-0.00340628623962402,0.000441670417785645,0.0046354437511956
1.338397396,0.00288200378417969,0.000585198402404785,-0.0134950876235962,0.0138117990483044
1.343397396,-0.0146408081054688,-0.00818657875061035,-0.0236705541610718,0.0290115230195406
1.348397396,0.00211238861083984,0.000668883323669434,-0.00873351097106934,0.00901020557066693
1.353397396,-0.00652885437011719,-0.0018155574798584,-0.00122165679931641,0.00688582846752546
1.358397396,-0.00854587554931641,-0.00263524055480957,0.00568044185638428,0.0105945222341491
1.363397396,-0.0140600204467773,0.00545573234558106,-0.00358366966247559,0.0155013508650106
1.368397396,-0.00486564636230469,-0.00194966793060303,-0.00736010074615479,0.00903586202618095
1.373397396,-0.0106077194213867,0.000364899635314941,0.00528299808502197,0.0118560926039342
1.378397396,-0.00638103485107422,-0.00995743274688721,-0.0101613998413086,0.0155923737581663
1.383397396,-0.00101661682128906,-0.0142611265182495,-0.0102617740631104,0.0175987853630065
1.388397396,0.00172901153564453,0.000316262245178223,0.0182507038116455,0.0183351490945269
1.393397396,-0.00836849212646484,-0.00341510772705078,-0.0116860866546631,0.0147735995125887
1.398397396,-0.0103750228881836,0.00250053405761719,-0.0124490261077881,0.0163973175103743
1.403397396,0.00695896148681641,0.000808119773864746,-0.00981688499450684,0.012060324769229
1.408397396,0.00337505340576172,-0.0117330551147461,-0.00378561019897461,0.0127822694540521
1.413397396,0.00448322296142578,-0.00222313404083252,-0.00349783897399902,0.00610544761449889
1.418397396,-0.00446987152099609,-0.00428986549377441,-0.0084148645401001,0.0104495283432853
1.423397396,-0.00391292572021484,-0.00233447551727295,-0.00605583190917969,0.00757851329383967
1.428397396,-0.00612354278564453,-0.000189781188964844,-0.00352287292480469,0.00706713710010115
1.433397396,-0.00230216979980469,0.00536823272705078,0.00229513645172119,0.00627579156210045
1.438397396,0.00102329254150391,-0.00484001636505127,-0.000753879547119141,0.00500412034337966
1.443397396,-0.00390911102294922,-0.00415384769439697,0.00735962390899658,0.00931126542097605
1.448397396,0.00486278533935547,0.00543379783630371,0.00968527793884277,0.0121234256270703
1.453397396,0.00405693054199219,-0.0072702169418335,-0.00391042232513428,0.00919815973794652
1.458397396,-0.00152397155761719,-0.00160372257232666,-0.00387513637542725,0.00446218526347524
1.463397396,0.00244045257568359,0.00543296337127686,-0.00236594676971436,0.00640863510311817
1.468397396,-0.000598907470703125,0.00149321556091309,0.00228941440582275,0.00279817819150349
1.473397396,0.0022735595703125,0.00539946556091309,-0.00109398365020752,0.00595987430154088
1.478397396,-0.00456428527832031,-0.00204181671142578,0.0000145435333251953,0.0050001927062175
1.483397396,-0.008758544921875,-0.00239253044128418,0.0263376235961914,0.0278586921400778
1.488397396,-0.00349044799804688,0.004630446434021,0.0064011812210083,0.00863709340169461
1.493397396,-0.00673198699951172,0.00496232509613037,0.00625312328338623,0.0104425030581038
1.498397396,-0.00395965576171875,-0.00712990760803223,0.00445306301116943,0.00929215940628623
1.503397396,-0.00978469848632813,-0.0114666223526001,0.0141193866729736,0.0206538333649336
1.508397396,-0.0118427276611328,-0.00710618495941162,0.0187454223632813,0.0232838768831768
1.513397396,0.000720024108886719,-0.00689113140106201,0.0150411128997803,0.0165602295868148
1.518397396,-0.00492572784423828,-0.0041126012802124,0.0191097259521484,0.020158321111931
1.523397396,-0.00612258911132813,-0.00358748435974121,0.0146722793579102,0.0162982184
1.528397396,0.00188922882080078,0.00335657596588135,-0.00102841854095459,0.0039866568008114
1.533397396,-0.00182247161865234,-0.00404202938079834,-0.00655746459960938,0.00791579094539266
1.538397396,-0.00446128845214844,-0.00131011009216309,0.00702750682830811,0.00842646636074563
1.543397396,-0.00649261474609375,-0.00264716148376465,0.00483775138854981,0.00851852972406252
1.548397396,-0.0107107162475586,0.00463497638702393,-0.00336956977844238,0.0121472815533261
1.553397396,-0.00667858123779297,-0.00401687622070313,0.00083315372467041,0.00783791343733667
1.558397396,-0.00643157958984375,-0.00400495529174805,0.000735759735107422,0.00761224180496132
1.563397396,0.00412654876708984,-0.00594818592071533,0.00252580642700195,0.00766739972749896
1.568397396,0.00129604339599609,-0.000422239303588867,0.00787556171417236,0.00799265205220006
1.573397396,0.00329113006591797,0.00552427768707275,0.00962841510772705,0.0115782364184441
1.578397396,-0.00984001159667969,0.00546526908874512,0.00931680202484131,0.0146115637221096
1.583397396,0.00164794921875,-0.00750839710235596,-0.000499486923217773,0.00770332725909471
1.588397396,-0.0130558013916016,0.00295531749725342,-0.00198662281036377,0.0135327204093329
1.593397396,0.000249862670898438,-0.00613629817962647,0.000454068183898926,0.00615814619989042
1.598397396,0.0112266540527344,-0.00874841213226318,0.011085033416748,0.0180402450622526
1.603397396,0.0130548477172852,0.00600290298461914,0.00156712532043457,0.014454057386568
1.608397396,-0.00492382049560547,-0.00315523147583008,0.0114823579788208,0.0128858076461199
1.613397396,-0.000619888305664063,-0.00551211833953857,-0.0059349536895752,0.0081235081952306
1.618397396,0.00362205505371094,-0.0167216062545776,-0.00039362907409668,0.0171139224724555
1.623397396,-0.00285053253173828,-0.00673425197601318,-0.00310719013214111,0.00794545882301399
1.628397396,-0.0105724334716797,-0.00189507007598877,0.00788640975952148,0.0133252804473706
1.633397396,-0.00668621063232422,0.00391542911529541,0.00369942188262939,0.00858613533799611
1.638397396,-0.00106239318847656,-0.00330638885498047,0.00164985656738281,0.00384485542513586
1.643397396,-0.0131816864013672,0.0033409595489502,-0.00251984596252441,0.0138299852048569
1.648397396,-0.00366687774658203,-0.00584185123443604,-0.00712859630584717,0.0099191785721096
1.653397396,-0.00571441650390625,0.00386989116668701,-0.00647950172424316,0.00946649651225777
1.658397396,-0.012974739074707,-0.00364458560943604,0.00679934024810791,0.0150949622765603
1.663397396,-0.0157070159912109,0.000288844108581543,-0.0137525796890259,0.0208788704285032
1.668397396,-0.000677108764648438,-0.0082402229309082,0.0157675743103027,0.0178038240235391
1.673397396,0.00125408172607422,-0.0108461380004883,0.0114775896072388,0.0158412907836926
1.678397396,-0.0101203918457031,-0.00190281867980957,0.00680661201477051,0.0123439465795354
1.683397396,-0.00284099578857422,-0.00831961631774902,0.00435388088226318,0.00981037978277034
1.688397396,-0.00205326080322266,-0.0114166736602783,0.0116101503372192,0.0164119440726617
1.693397396,-0.00843906402587891,-0.00890326499938965,-0.00418782234191895,0.0129623989002698
1.698397396,-0.00503444671630859,-0.0126593112945557,0.0164433717727661,0.0213538823507393
1.703397396,0.0121164321899414,0.00926506519317627,-0.008780837059021,0.0175997858368882
1.708397396,0.00419902801513672,-0.00852632522583008,-0.00809681415557861,0.0124855299286217
1.713397396,0.00414562225341797,-0.00976479053497315,0.00755524635314941,0.0130237884471728
1.718397396,0.00736331939697266,0.00302600860595703,0.0043412446975708,0.009067613034826
1.723397396,-0.00347328186035156,0.0055999755859375,0.00702571868896484,0.00963245225999139
1.728397396,-0.00977993011474609,0.00153636932373047,-0.00146067142486572,0.0100070487537354
1.733397396,0.00221157073974609,0.00248873233795166,0.00880229473114014,0.00941090996241728
1.738397396,-0.00542354583740234,0.00448143482208252,0.00913727283477783,0.0115320363497583
1.743397396,-0.000264167785644531,-0.00367307662963867,0.000600576400756836,0.00373121542654886
1.748397396,-0.00603008270263672,0.00548279285430908,0.00190639495849609,0.00837002130353804
1.753397396,-0.00175189971923828,0.0026320219039917,-0.000787138938903809,0.00325826328563207
1.758397396,-0.000136375427246094,-0.00776755809783936,-0.00976860523223877,0.0124811540028873
1.763397396,0.00781154632568359,-0.00111186504364014,0.00629806518554688,0.0100956488129772
1.768397396,0.00588417053222656,-0.00115823745727539,-0.00287234783172607,0.00664946305547904
1.773397396,-0.00462055206298828,-0.0100710391998291,-0.000314474105834961,0.0110848647215255
1.778397396,-0.00806617736816406,-0.0149078369140625,-0.00297343730926514,0.017208955465777
1.783397396,0.00737953186035156,-0.00448274612426758,-0.0139811038970947,0.0164323999912958
1.788397396,-0.00994586944580078,-0.00744032859802246,0.0138206481933594,0.0185819569788565
1.793397396,-0.00318050384521484,-0.00528573989868164,0.0103961229324341,0.0120885906131452
1.798397396,0.00204753875732422,-0.00660216808319092,0.00162160396575928,0.00710004491416891
1.803397396,-0.00631141662597656,0.00453972816467285,0.00172924995422363,0.00796450984304494
1.808397396,-0.0102443695068359,0.00286781787872314,0.00702857971191406,0.012750388964453
1.813397396,-0.0014190673828125,0.00169920921325684,0.0226678848266602,0.0227757341638444
1.818397396,-0.00544166564941406,-0.0112049579620361,-0.00344729423522949,0.0129246526264831
1.823397396,-0.00415706634521484,-0.00194919109344482,0.00959575176239014,0.010637621839617
1.828397396,-0.00475788116455078,-0.00415027141571045,0.00959432125091553,0.0114853465888418
1.833397396,-0.0129671096801758,0.00947725772857666,0.00381898880004883,0.016509058815283
1.838397396,-0.00372791290283203,0.00756168365478516,0.00379490852355957,0.00924541643239133
1.843397396,-0.00498199462890625,0.00639116764068604,0.00486516952514648,0.00945183415016456
1.848397396,0.00318431854248047,-0.0084754228591919,0.00284969806671143,0.00949175728163738
1.853397396,-0.00253582000732422,-0.00854599475860596,0.0143617391586304,0.0169033712964072
1.858397396,0.00211334228515625,-0.000432491302490234,-0.00303363800048828,0.00372239490905595
1.863397396,0.00249576568603516,-0.00596106052398682,0.00467133522033691,0.00797398656074768
1.868397396,0.0118198394775391,-0.00394725799560547,-0.00684273242950439,0.0142166254104289
1.873397396,-0.0000896453857421875,-0.0121324062347412,0.0131672620773315,0.0179047509883021
1.878397396,-0.00185298919677734,0.000594258308410645,0.0247766971588135,0.0248529964792989
1.883397396,-0.00274276733398438,-0.00615775585174561,0.00542497634887695,0.0086528086864297
1.888397396,0.00696754455566406,-0.00504815578460693,0.00853884220123291,0.0121219792153914
1.893397396,-0.000519752502441406,-0.00438797473907471,-0.00390088558197022,0.00589418130855974
1.898397396,-0.000491142272949219,-0.00653564929962158,0.00868344306945801,0.0108792516305323
1.903397396,-0.0004730224609375,0.00199687480926514,0.0081256628036499,0.00838079084878323
1.908397396,0.00129222869873047,0.00207376480102539,0.0126365423202515,0.012870608271224
1.913397396,-0.0100202560424805,0.0005035400390625,0.004646897315979,0.0110567960274692
1.918397396,-0.002716064453125,-0.00742149353027344,-0.00673186779022217,0.0103814072397942
1.923397396,-0.00189304351806641,-0.00258362293243408,-0.00194764137268066,0.00374860349128445
1.928397396,-0.000296592712402344,0.00218498706817627,0.00203061103820801,0.00299758518038102
1.933397396,-0.00490570068359375,0.00218081474304199,0.00745069980621338,0.00918339696097199
1.938397396,0.00670242309570313,0.00686514377593994,0.00647222995758057,0.011573350208213
1.943397396,-0.00668144226074219,0.00352394580841064,0.00079345703125,0.00759535639747647
1.948397396,0.00508594512939453,-0.00515878200531006,-0.00233590602874756,0.00761159159523565
1.953397396,0.0023651123046875,-0.00410079956054688,0.0107113122940063,0.0117107866648359
1.958397396,0.00722885131835938,0.0014568567276001,-0.0120810270309448,0.0141537958523542
1.963397396,-0.0188798904418945,-0.00725662708282471,-0.00732219219207764,0.0215110064435593
1.968397396,-0.00489521026611328,-0.00351786613464355,-0.0110234022140503,0.0125639906902012
1.973397396,0.00220012664794922,-0.00725877285003662,-0.0036996603012085,0.00843906552289904
1.978397396,0.00900077819824219,-0.00717854499816895,0.00739443302154541,0.013682951296223
1.983397396,-0.0021820068359375,-0.000400066375732422,0.00491070747375488,0.00538852993216719
1.988397396,-0.000715255737304688,0.00236880779266357,-0.00207507610321045,0.00322936246996927
1.993397396,-0.00962924957275391,-0.00290608406066895,0.00703847408294678,0.0122763141585074
1.998397396,-0.00638103485107422,-0.00872290134429932,0.0103682279586792,0.0149768743279811
2.003397396,0.00102519989013672,-0.00132513046264648,-0.00273394584655762,0.00320647243083106
2.008397396,-0.00207901000976563,-0.00440728664398193,-0.0118210315704346,0.0127860566857862
2.013397396,0.0000123977661132813,-0.00580406188964844,-0.00759661197662354,0.00956011514820058
2.018397396,0.0214347839355469,0.00156068801879883,-0.00750637054443359,0.0227646943358777
2.023397396,-0.00560855865478516,0.0061572790145874,0.00505363941192627,0.00974203707411435
2.028397396,-0.0120515823364258,-0.00591611862182617,-0.014642596244812,0.0198657172321502
2.033397396,-0.00476932525634766,0.0036318302154541,-0.00141990184783936,0.00616058238904559
2.038397396,-0.00472259521484375,0.000926971435546875,0.00142383575439453,0.00501891321513704
2.043397396,-0.0118656158447266,0.000143527984619141,-0.00239968299865723,0.0121066889838238
2.048397396,-0.00972652435302734,-0.00189423561096191,-0.00228345394134522,0.0101689510984228
2.053397396,0.00967121124267578,0.00157403945922852,0.00261509418487549,0.0101414320840519
2.058397396,0.00831890106201172,-0.00203132629394531,0.000159025192260742,0.00856479365798073
2.063397396,0.00475025177001953,0.0078355073928833,-0.00673198699951172,0.0113701238754948
2.068397396,-0.00104904174804688,-0.000452041625976563,-0.00654864311218262,0.00664752260857363
2.073397396,-0.00481510162353516,0.00131320953369141,0.00468301773071289,0.00684400306768781
2.078397396,-0.000303268432617188,0.00687456130981445,0.00347912311553955,0.00771076277664548
2.083397396,-0.0000429153442382813,0.00597238540649414,-0.0188878774642944,0.019809672997722
2.088397396,-0.000057220458984375,-0.00520420074462891,-0.00877773761749268,0.0102046880037005
2.093397396,-0.00223731994628906,0.00102722644805908,-0.00241208076477051,0.00344658212341311
2.098397396,0.00411701202392578,0.010560154914856,0.0101566314697266,0.0152191925752566
2.103397396,0.00561714172363281,-0.00440490245819092,0.00832068920135498,0.0109630887798603
2.108397396,0.00459384918212891,-0.00730884075164795,0.00369155406951904,0.00938883245612993
2.113397396,0.00109767913818359,-0.00187969207763672,0.00700831413269043,0.00733856994104452
2.118397396,-0.000945091247558594,0.00515985488891602,-0.00116157531738281,0.00537276066457788
2.123397396,-0.0126228332519531,0.00939631462097168,-0.00335752964019775,0.0160903590092858
2.128397396,-0.000133514404296875,0.000690460205078125,0.00348532199859619,0.00355556336251371
2.133397396,0.00760555267333984,0.00118720531463623,-0.00691461563110352,0.0103472603742222
2.138397396,0.00924301147460938,-0.00737679004669189,0.0085829496383667,0.0146122317599836
2.143397396,0.0138950347900391,-0.00667297840118408,0.00160753726959229,0.0154978969099744
2.148397396,0.00595378875732422,-0.00578832626342773,0.0105654001235962,0.0134380058517034
2.153397396,-0.00530433654785156,-0.00505232810974121,-0.00291907787322998,0.00788562116585218
2.158397396,-0.00368595123291016,0.00213122367858887,0.00271689891815186,0.00505073168867883
2.163397396,-0.00524234771728516,0.0101015567779541,0.0170869827270508,0.0205301884463267
2.168397396,-0.00995445251464844,0.0019690990447998,0.00910365581512451,0.0136324988580551
2.173397396,-0.00902748107910156,-0.00488173961639404,0.0112369060516357,0.0152182408289886
2.178397396,-0.00341796875,0.00347042083740234,0.00122237205505371,0.00502200404277308
2.183397396,0.00215530395507813,-0.00272631645202637,-0.00305068492889404,0.0046243718568846
2.188397396,0.00440406799316406,0.00386416912078857,-0.00650203227996826,0.0087523734867873
2.193397396,-0.00789165496826172,0.00264334678649902,0.0154203176498413,0.0175228906517672
2.198397396,-0.00461673736572266,-0.00281763076782227,-0.000426054000854492,0.00542538745708383
2.203397396,0.00444221496582031,-0.00277435779571533,-0.00329482555389404,0.00618758518420535
2.208397396,-0.0127782821655273,-0.000968098640441895,-0.0128754377365112,0.0181658637831026
2.213397396,-0.00196170806884766,0.00204813480377197,0.00300872325897217,0.00413467899248348
2.218397396,0.00460052490234375,-0.0013197660446167,0.00021064281463623,0.00479071833705198
2.223397396,0.000407218933105469,-0.00265026092529297,0.0113018751144409,0.0116155968996016
2.228397396,-0.0103788375854492,-0.00690555572509766,0.0125468969345093,0.0176870458862627
2.233397396,-0.0163660049438477,0.000000834465026855469,0.00409233570098877,0.0168698941907756
2.238397396,0.00960731506347656,-0.00740158557891846,0.0111749172210693,0.016491293057511
2.243397396,0.00687789916992188,-0.00465166568756104,-0.00100433826446533,0.00836374234478286
2.248397396,-0.00567722320556641,-0.00251162052154541,0.00654935836791992,0.00902403435285529
2.253397396,-0.00512981414794922,-0.00250744819641113,-0.00946033000946045,0.0110498929197564
2.258397396,0.00118350982666016,0.0140787363052368,-0.00143420696258545,0.0142010021151228
2.263397396,0.0120534896850586,-0.0121579170227051,0.0029069185256958,0.0173652450381165
2.268397396,0.00478458404541016,-0.00363349914550781,0.00477719306945801,0.00767568460470316
2.273397396,-0.00634670257568359,-0.000867724418640137,0.00467419624328613,0.00792979758705374
2.278397396,-0.0105991363525391,0.00342178344726563,-0.00451195240020752,0.0120169883016268
2.283397396,-0.00935745239257813,0.0066068172454834,-0.00675272941589356,0.0132970411730902
2.288397396,0.00880813598632813,-0.00642466545104981,-0.0029139518737793,0.0112849767936963
2.293397396,0.0014190673828125,0.000992894172668457,-0.00395691394805908,0.00431934706494232
2.298397396,0.00282669067382813,-0.00250518321990967,0.00663769245147705,0.00763708610735923
2.303397396,0.00300502777099609,0.000361442565917969,-0.00111889839172363,0.00322688181437078
2.308397396,0.00854206085205078,0.00226223468780518,0.00261962413787842,0.00921666642591576
2.313397396,0.00505352020263672,-0.00671935081481934,-0.00196373462677002,0.00863388646528586
2.318397396,0.0000143051147460938,-0.00608360767364502,-0.00422108173370361,0.00740459438225665
2.323397396,0.00138759613037109,0.00234866142272949,0.0112484693527222,0.0115745279073822
2.328397396,0.00260257720947266,-0.00200569629669189,-0.0046314001083374,0.00567856431938019
2.333397396,0.0000057220458984375,0.00772571563720703,-0.0101754665374756,0.0127760257554562
2.338397396,0.0000295639038085938,-0.00239419937133789,0.00314950942993164,0.00395632080389741
2.343397396,0.0184183120727539,0.0112075805664063,-0.00690555572509766,0.022639142687705
2.348397396,0.000563621520996094,-0.0154132843017578,-0.0108213424682617,0.0188411373064672
2.353397396,0.00320720672607422,-0.00562477111816406,-0.00413191318511963,0.00768094601496936
2.358397396,0.00218772888183594,0.00226330757141113,-0.000677227973937988,0.00321983796982243
2.363397396,0.00157546997070313,-0.0020219087600708,0.000558137893676758,0.00262330680077575
2.368397396,0.00767612457275391,0.00467300415039063,0.00885140895843506,0.0126137740900758
2.373397396,-0.00474452972412109,0.00251889228820801,-0.00277507305145264,0.00604618980049097
2.378397396,-0.000861167907714844,0.0166565179824829,0.00724589824676514,0.0181847255373439
2.383397396,-0.00640487670898438,0.013374924659729,0.00488567352294922,0.0156134833103816
2.388397396,-0.00479412078857422,0.00690150260925293,-0.00310516357421875,0.00895859214517658
2.393397396,-0.00636863708496094,0.00367641448974609,0.00487029552459717,0.00882016668307725
2.398397396,-0.00944995880126953,-0.00592505931854248,-0.013561487197876,0.0175590997574503
2.403397396,-0.00452518463134766,0.0021129846572876,-0.0218601226806641,0.0224233575479543
2.408397396,0.00575637817382813,0.000396132469177246,-0.00880634784698486,0.0105282749306501
2.413397396,-0.000407218933105469,-0.00236940383911133,0.0035710334777832,0.0043049020792259
2.418397396,-0.0139455795288086,0.00195646286010742,0.0024111270904541,0.014287073498923
2.423397396,-0.00930309295654297,-0.00592494010925293,-0.0028301477432251,0.0113869306709401
2.428397396,-0.00105762481689453,0.0131247043609619,0.00924980640411377,0.0160914683397615
2.433397396,-0.00450706481933594,-0.0166553258895874,0.0205178260803223,0.0268084818823522
2.438397396,-0.00448703765869141,-0.00539791584014893,-0.0109182596206665,0.0129799613062644
2.443397396,-0.00270652770996094,0.00397086143493652,-0.0169930458068848,0.0176594631451564
2.448397396,-0.00230121612548828,0.0017693042755127,0.0110645294189453,0.0114389616896929
2.453397396,-0.00446319580078125,0.0109653472900391,0.0117719173431396,0.0166954184098809
2.458397396,0.00393581390380859,-0.000422954559326172,-0.00903081893920898,0.00986028459819713
2.463397396,-0.000263214111328125,-0.00267255306243897,0.017676830291748,0.0178796574548624
2.468397396,-0.00501251220703125,-0.00157475471496582,0.0136187076568604,0.0145970657764145
2.473397396,0.00601673126220703,0.00210952758789063,-0.0140160322189331,0.0153980622445768
2.478397396,-0.00247669219970703,-0.00593936443328857,0.00244295597076416,0.00688317426763228
2.483397396,-0.00104999542236328,0.00185191631317139,0.0128475427627563,0.0130227278040673
2.488397396,0.000200271606445313,0.00254666805267334,-0.00864207744598389,0.00901172178161524
2.493397396,0.00826358795166016,-0.00634264945983887,0.0119102001190186,0.0158230513770349
2.498397396,-0.00705623626708984,0.00573801994323731,-0.00127792358398438,0.00918414023262311
2.503397396,0.00214004516601563,-0.00576293468475342,0.000712990760803223,0.0061886642596211
2.508397396,0.00210666656494141,-0.0168503522872925,0.0118685960769653,0.0207180112235673
2.513397396,-0.00347614288330078,-0.00599908828735352,0.00335359573364258,0.00770189807575318
2.518397396,0.00416278839111328,0.00631535053253174,-0.00559055805206299,0.0094056790755066
2.523397396,-0.0175399780273438,0.00172007083892822,-0.00541627407073975,0.0184376109542424
2.528397396,-0.000742912292480469,-0.00388646125793457,0.00147700309753418,0.00422351014369215
2.533397396,0.00348186492919922,-0.00737464427947998,0.0146746635437012,0.0167885232154257
2.538397396,-0.0132122039794922,-0.0101855993270874,0.0197257995605469,0.0258343944374654
2.543397396,0.00710010528564453,-0.00825154781341553,0.0104166269302368,0.015066706773149
2.548397396,0.000949859619140625,0.00638103485107422,0.00833892822265625,0.010543128708752
2.553397396,0.000748634338378906,-0.00548303127288818,0.00407075881958008,0.00686987355627881
2.558397396,-0.000539779663085938,0.00575101375579834,0.00691795349121094,0.00901241376161905
2.563397396,-0.0118932723999023,0.00234770774841309,0.00574862957000732,0.0134167209847787
2.568397396,-0.00625801086425781,0.00230252742767334,0.0113456249237061,0.0131600736108039
2.573397396,-0.00824165344238281,0.00604188442230225,0.0130579471588135,0.0165812907470789
2.578397396,0.0000619888305664063,0.0023801326751709,0.00839328765869141,0.00872445711136645
2.583397396,-0.00847625732421875,0.00566220283508301,0.00348162651062012,0.0107716852131617
2.588397396,-0.00139141082763672,-0.00108075141906738,0.000570178031921387,0.00185179661657716
2.593397396,0.00289535522460938,0.00219142436981201,0.00086522102355957,0.00373283137375481
2.598397396,0.006561279296875,-0.000946283340454102,0.00825572013854981,0.010587858762662
2.603397396,0.00205135345458984,-0.0142530202865601,0.015998363494873,0.0215245040081958
2.608397396,0.0191230773925781,-0.00729560852050781,0.00345206260681152,0.0207565586957083
2.613397396,0.00263214111328125,-0.0104091167449951,0.0000212192535400391,0.0107367745858747
2.618397396,-0.00778007507324219,-0.00395393371582031,0.00953781604766846,0.0129279965552883
2.623397396,-0.00215816497802734,-0.00475835800170898,0.00544369220733643,0.00754542456015743
2.628397396,0.000227928161621094,0.000803470611572266,-0.00173866748809814,0.00192885481690297
2.633397396,0.00423431396484375,-0.0095893144607544,0.00618469715118408,0.0121710659119063
2.638397396,0.00473594665527344,-0.0117944478988647,0.00271320343017578,0.012996140381442
2.643397396,-0.0132026672363281,-0.0108463764190674,-0.00799620151519775,0.0188651409284151
2.648397396,-0.00753688812255859,-0.00687849521636963,0.00591433048248291,0.0117939681222908
2.653397396,0.00303173065185547,0.000587224960327148,0.000300884246826172,0.0031027012794369
2.658397396,-0.00988864898681641,-0.0090179443359375,0.0143901109695435,0.0196515646335427
2.663397396,-0.0103769302368164,-0.00400316715240479,-0.0071638822555542,0.0132297859907593
2.668397396,0.000348091125488281,0.00682783126831055,-0.0110678672790527,0.013009155751504
2.673397396,-0.00328731536865234,-0.0106575489044189,0.00546431541442871,0.0124196833265354
2.678397396,-0.00125980377197266,-0.00504982471466064,-0.00388205051422119,0.0064929308780888
2.683397396,-0.0119771957397461,-0.00207173824310303,-0.00675129890441895,0.0139041488064871
2.688397396,-0.0183734893798828,-0.00203335285186768,0.00345957279205322,0.0188066020247247
2.693397396,-0.00144290924072266,0.0064014196395874,-0.000841259956359863,0.00661572964934577
2.698397396,0.00525665283203125,0.00669252872467041,0.00606656074523926,0.0104511003728181
2.703397396,0.00177288055419922,-0.00260651111602783,-0.0112658739089966,0.0116985862646238
2.708397396,0.00356101989746094,0.00465273857116699,0.0145084857940674,0.0156468846406687
2.713397396,-0.00470447540283203,-0.00153923034667969,-0.00515651702880859,0.00714779593611795
2.718397396,-0.00530815124511719,-0.00784611701965332,-0.000818729400634766,0.00950833001944066
2.723397396,0.000279426574707031,0.00130486488342285,0.00299561023712158,0.00327939510693516
2.728397396,0.0003662109375,-0.0156499147415161,-0.00179040431976318,0.0157562523937545
2.733397396,-0.00285053253173828,-0.00439739227294922,0.00169861316680908,0.00550889110503638
2.738397396,-0.00319766998291016,0.000774860382080078,0.00842392444610596,0.00904367209738519
2.743397396,0.00240325927734375,-0.00483775138854981,-0.00551843643188477,0.00772221692937381
2.748397396,-0.000533103942871094,0.000379562377929688,-0.0113875865936279,0.0114063752279161
2.753397396,0.000407218933105469,0.00710570812225342,-0.0113202333450317,0.0133717836567941
2.758397396,-0.00260353088378906,-0.00207710266113281,0.0119996070861816,0.0124532445069736
2.763397396,0.00774860382080078,0.000465512275695801,0.00628149509429932,0.00998572698756872
2.768397396,-0.00549697875976563,0.00322496891021729,0.00475931167602539,0.00795413399351143
2.773397396,-0.00481319427490234,0.000702261924743652,0.00446641445159912,0.00660370115861937
2.778397396,-0.00656986236572266,0.00257587432861328,-0.00109612941741943,0.00714140880786698
2.783397396,0.00936222076416016,-0.0109302997589111,-0.0020596981048584,0.0145383969797114
2.788397396,0.00133323669433594,0.0068211555480957,-0.0103979110717773,0.012506887612473
2.793397396,0.00550556182861328,-0.00153899192810059,0.00352907180786133,0.00671818837399518
2.798397396,0.00544834136962891,-0.00516724586486816,0.0061492919921875,0.00970559866845875
2.803397396,0.00241565704345703,0.0115453004837036,0.00223898887634277,0.0120059332581435
2.808397396,-0.00314903259277344,-0.00221168994903564,0.00368428230285645,0.00532746795280421
2.813397396,0.00512313842773438,0.00221359729766846,-0.00192606449127197,0.0059039211351874
2.818397396,-0.0116176605224609,0.00183022022247314,0.00463938713073731,0.0126429290525079
2.823397396,0.0051422119140625,-0.00230252742767334,0.0123859643936157,0.0136072072771833
2.828397396,0.00354290008544922,0.00000345706939697266,0.000122547149658203,0.00354502055998188
2.833397396,-0.00264358520507813,-0.000642538070678711,0.00374245643615723,0.00462681078987612
2.838397396,-0.00319099426269531,-0.0101150274276733,0.00695431232452393,0.0126830076935309
2.843397396,0.000693321228027344,0.00240039825439453,0.00687885284423828,0.00731855331043088
2.848397396,-0.00798988342285156,0.00175309181213379,0.000506758689880371,0.00819563129858207
2.853397396,0.00235748291015625,-0.00224757194519043,-0.00439751148223877,0.00547242291466108
2.858397396,0.0102882385253906,0.00255334377288818,0.00190389156341553,0.0107699684058554
2.863397396,0.00547218322753906,0.00724148750305176,0.00186014175415039,0.00926520684486581
2.868397396,0.00941181182861328,0.0111469030380249,0.00987589359283447,0.0176172904696875
2.873397396,-0.0181035995483398,0.00710391998291016,0.0157994031906128,0.0250564789407807
2.878397396,0.00290012359619141,0.00743043422698975,-0.00399243831634522,0.00891973280903797
2.883397396,-0.00708293914794922,-0.00698792934417725,-0.00618457794189453,0.0117152971713113
2.888397396,-0.0113916397094727,0.00727832317352295,0.00438320636749268,0.0142111203481184
2.893397396,-0.0180826187133789,0.00190746784210205,0.00454413890838623,0.0187421645367018
2.898397396,0.00255966186523438,0.00163626670837402,0.00156795978546143,0.00341873302468802
2.903397396,-0.00846481323242188,0.00224506855010986,-0.0120148658752441,0.0148677637139747
2.908397396,-0.00935935974121094,0.00321638584136963,0.00451004505157471,0.0108758107290076
2.913397396,-0.0166072845458984,0.00341475009918213,-0.00842738151550293,0.0189336519836016
2.918397396,-0.0146579742431641,-0.00254321098327637,-0.00179040431976318,0.0149843144203178
2.923397396,-0.0114374160766602,-0.00250136852264404,-0.0158970355987549,0.0197430259034627
2.928397396,-0.00430107116699219,0.00589001178741455,-0.0140239000320435,0.0158069992138977
2.933397396,0.0060577392578125,-0.00226688385009766,0.0157289505004883,0.017006905984108
2.938397396,0.00259017944335938,0.000128388404846191,0.00666844844818115,0.00715497853507263
2.943397396,0.00436878204345703,-0.00908017158508301,0.00477159023284912,0.0111491634622514
2.948397396,-0.00122165679931641,-0.0118540525436401,0.00189340114593506,0.0120663157153344
2.953397396,0.00719547271728516,-0.00125932693481445,0.00545394420623779,0.00911626235683786
2.958397396,0.010894775390625,0.00682711601257324,0.0152930021286011,0.0199795284720811
2.963397396,-0.00746536254882813,0.00317060947418213,0.00552511215209961,0.00981383037944399
2.968397396,0.00134944915771484,0.0095667839050293,-0.00641262531280518,0.0115959532043388
2.973397396,0.00132369995117188,0.000353693962097168,-0.000716328620910645,0.00154609432852338
2.978397396,-0.00148963928222656,-0.00801992416381836,-0.000646471977233887,0.00818267283972045
2.983397396,-0.00344753265380859,0.00250041484832764,-0.00253117084503174,0.00495422866443935
2.988397396,-0.00342178344726563,0.00269210338592529,0.0195243358612061,0.0200038924567612
2.993397396,-0.00722980499267578,-0.00535905361175537,0.00169980525970459,0.00915854102828105
2.998397396,0.00138378143310547,0.00795674324035645,-0.00384271144866943,0.00894377131445681
3.003397396,0.00344753265380859,-0.00878369808197022,-0.00310778617858887,0.00993464485153404
3.008397396,-0.00547122955322266,-0.00515210628509522,0.00808990001678467,0.0110419669569578
3.013397396,0.00191974639892578,0.0060875415802002,-0.0029609203338623,0.00703637960533214
3.018397396,0.0015869140625,0.00259578227996826,-0.00250589847564697,0.00394156175354482
3.023397396,-0.00286197662353516,0.00176024436950684,-0.00803852081298828,0.008712473087183
3.028397396,0.00269889831542969,-0.0011134147644043,-0.00942134857177734,0.00986334392919327
3.033397396,0.0103998184204102,0.0000693798065185547,0.00975048542022705,0.0142559812943591
3.038397396,0.000491142272949219,-0.00248658657073975,-0.00860857963562012,0.00897396104565171
3.043397396,0.00308132171630859,0.00135838985443115,-0.00175559520721436,0.00379761517897883
3.048397396,-0.00330543518066406,0.00232338905334473,-0.0061638355255127,0.0073700004621673
3.053397396,-0.00764560699462891,-0.00244319438934326,0.00653672218322754,0.0103514850162252
3.058397396,-0.00203895568847656,-0.000991582870483398,-0.00165069103240967,0.00280452451818213
3.063397396,-0.00560855865478516,0.00228798389434814,0.00299680233001709,0.00675807847617633
3.068397396,-0.000588417053222656,0.0022815465927124,-0.00138700008392334,0.00273412851125256
3.073397396,0.00212955474853516,0.00613057613372803,0.00539231300354004,0.00843777261406062
3.078397396,-0.00815677642822266,0.00219404697418213,0.00793313980102539,0.0115879916692902
3.083397396,-0.0066375732421875,-0.00258445739746094,0.00073540210723877,0.00716083897626705
3.088397396,-0.0001983642578125,0.00218415260314941,0.0110893249511719,0.0113041142441726
3.093397396,0.00140476226806641,0.00927233695983887,-0.00175619125366211,0.00954116331722795
3.098397396,0.00293254852294922,0.00365233421325684,-0.0112261772155762,0.0121641457127206
3.103397396,0.00136089324951172,-0.00591254234313965,0.0168352127075195,0.0178950991699798
3.108397396,-0.0128269195556641,-0.00726747512817383,-0.00665199756622314,0.0161739027957738
3.113397396,-0.00629425048828125,0.000421524047851563,-0.0104390382766724,0.0121970812850442
3.118397396,-0.000163078308105469,-0.00733768939971924,-0.00817513465881348,0.010986405551911
3.123397396,-0.010685920715332,-0.00729513168334961,-0.0161705017089844,0.0207097313679352
3.128397396,-0.00421714782714844,0.00919198989868164,-0.013947606086731,0.017228253818774
3.133397396,-0.00246429443359375,-0.00000643730163574219,-0.00275123119354248,0.00369351615329007
3.138397396,0.00655937194824219,-0.00719892978668213,0.00804793834686279,0.0126340516883488
3.143397396,0.00913524627685547,-0.0025862455368042,0.00802183151245117,0.0124294477483755
3.148397396,-0.00206565856933594,-0.00258994102478027,0.0115910768508911,0.0120551981485239
3.153397396,-0.00541400909423828,-0.00518262386322022,0.00977075099945068,0.012314165001062
3.158397396,-0.00662326812744141,-0.00388205051422119,-0.00342559814453125,0.00840670681841363
3.163397396,0.00887966156005859,-0.0108709335327148,0.00241291522979736,0.0142424627505244
3.168397396,0.00147056579589844,0.00181806087493896,0.00304245948791504,0.00383724756051189
3.173397396,-0.000700950622558594,-0.00394141674041748,-0.00370562076568604,0.00545506397359298
3.178397396,-0.00242042541503906,0.00522160530090332,-0.00185132026672363,0.00604574295171159
3.183397396,-0.00456714630126953,-0.00573384761810303,-0.00764286518096924,0.0105900529752829
3.188397396,-0.00577831268310547,0.0020906925201416,-0.00198960304260254,0.00645897924943616
3.193397396,0.00107955932617188,0.00278019905090332,0.0164544582366943,0.0167225641264875
3.198397396,-0.00797462463378906,-0.0111962556838989,0.0045396089553833,0.0144761468926255
3.203397396,-0.00555133819580078,-0.00234568119049072,0.00615084171295166,0.0086111805107874
3.208397396,-0.00428581237792969,0.00167703628540039,-0.00749599933624268,0.00879605846332978
3.213397396,-0.00414371490478516,0.00441503524780273,-0.00213885307312012,0.00642165102756873
3.218397396,-0.00180435180664063,0.00603067874908447,-0.00264883041381836,0.00682942707538162
3.223397396,-0.00732803344726563,-0.0105253458023071,-0.00162386894226074,0.0129274873352878
3.228397396,-0.00236892700195313,0.00719690322875977,-0.00557279586791992,0.00940549227899427
3.233397396,0.001953125,0.00587773323059082,0.00415670871734619,0.00745926756166304
3.238397396,-0.00429439544677734,0.000250339508056641,0.009521484375,0.0104481178604553
3.243397396,-0.00934123992919922,-0.00245475769042969,0.00617647171020508,0.0114644407417263
3.248397396,-0.00000476837158203125,-0.0061718225479126,0.00602579116821289,0.00862563478842006
3.253397396,0.00660133361816406,-0.0161747932434082,0.0205076932907105,0.0269400635877341
3.258397396,-0.00156974792480469,0.002449631690979,0.0145986080169678,0.0148857032081777
3.263397396,0.0122976303100586,0.00380229949951172,0.00473487377166748,0.0137152550964422
3.268397396,0.0191011428833008,0.00929439067840576,0.00932729244232178,0.0231999513326149
3.273397396,0.0142307281494141,0.0147405862808228,-0.00518214702606201,0.0211341703259113
3.278397396,0.0196380615234375,0.00113987922668457,-0.00439524650573731,0.0201561647367732
3.283397396,0.00196743011474609,0.0065845251083374,0.00229811668395996,0.00724624678380682
3.288397396,0.00952625274658203,-0.0162782669067383,-0.0082700252532959,0.0205942900477031
3.293397396,0.00127220153808594,-0.00912809371948242,-0.00438416004180908,0.0102059517428488
3.298397396,0.00353050231933594,-0.00940191745758057,0.00587534904479981,0.0116353008084976
3.303397396,0.0121450424194336,-0.0105451345443726,-0.00830543041229248,0.0181019913894078
3.308397396,0.00754165649414063,-0.0188888311386108,-0.0183073282241821,0.0273646266403637
3.313397396,-0.00831890106201172,-0.00714612007141113,-0.00199246406555176,0.0111463473841021
3.318397396,-0.0185766220092773,-0.018863320350647,0.00508415699005127,0.0269585680670578
3.323397396,-0.0223407745361328,-0.00829684734344482,-0.0103391408920288,0.0259777927680542
3.328397396,-0.0220880508422852,-0.0184211730957031,-0.00733494758605957,0.0296820326851695
3.333397396,-0.012232780456543,-0.0124074220657349,0.00176036357879639,0.0175123933242951
3.338397396,-0.00340557098388672,0.00206589698791504,0.00946331024169922,0.0102674283450929
3.343397396,-0.00263690948486328,0.0179833173751831,0.0106091499328613,0.0210453571541529
3.348397396,-0.00897884368896484,0.0165551900863647,0.0128829479217529,0.022818069592784
3.353397396,-0.00987529754638672,-0.00210511684417725,0.0192242860794067,0.0217146538959335
3.358397396,-0.00496864318847656,0.00838565826416016,0.00482320785522461,0.0108752017761682
3.363397396,-0.00178050994873047,0.00723767280578613,0.0134327411651611,0.0153620525494271
3.368397396,-0.00151348114013672,0.00877082347869873,0.0151152610778809,0.0175410685851388
3.373397396,0.0120849609375,0.00931549072265625,0.0279622077941895,0.0318545085190499
3.378397396,0.0129289627075195,0.0201256275177002,0.00804126262664795,0.0252361023992289
3.383397396,0.0147609710693359,0.00868189334869385,0.0107526779174805,0.0202208214824457
3.388397396,0.0116081237792969,0.00601804256439209,0.00148487091064453,0.0131594154734772
3.393397396,0.0080413818359375,-0.00643277168273926,0.00960636138916016,0.0140828460366768
3.398397396,0.00235843658447266,-0.0273025035858154,-0.00138390064239502,0.0274390981295753
3.403397396,-0.0035400390625,-0.0111016035079956,-0.0253045558929443,0.0278585359621052
3.408397396,-0.00820255279541016,-0.023334264755249,-0.00795090198516846,0.0259805047373469
3.413397396,0.000873565673828125,-0.0212595462799072,-0.0169703960418701,0.0272162776079303
3.418397396,-0.0103845596313477,-0.0264604091644287,-0.0280792713165283,0.0399554478081927
3.423397396,-0.00879669189453125,-0.0139931440353394,-0.00892841815948486,0.0187858063205092
3.428397396,-0.0116672515869141,-0.017013430595398,-0.00590717792510986,0.0214587122459778
3.433397396,-0.00271224975585938,-0.0166542530059814,-0.0150104761123657,0.0225839508289693
3.438397396,-0.00683307647705078,-0.00757074356079102,-0.00567400455474854,0.0116705364012024
3.443397396,-0.0064849853515625,-0.00540721416473389,-0.0167664289474487,0.018772483577916
3.448397396,-0.000500679016113281,-0.0203744173049927,-0.0115314722061157,0.0234167122208815
3.453397396,0.0146045684814453,-0.0274934768676758,0.0135831832885742,0.0339659764919787
3.458397396,0.035975456237793,-0.0230683088302612,-0.00214135646820068,0.0427897853620414
3.463397396,0.0564565658569336,-0.0330884456634522,0.0138286352157593,0.066883631904316
3.468397396,0.0564489364624023,-0.02143394947052,0.00995075702667236,0.0611957039590608
3.473397396,0.0689573287963867,-0.0208841562271118,0.035995364189148,0.0805414639745317
3.478397396,0.128205299377441,-0.0163739919662476,0.0282597541809082,0.132300113785799
3.483397396,0.162704467773438,-0.0307557582855225,0.020439624786377,0.166842556808996
3.488397396,0.195364952087402,-0.0226070880889893,0.0222998857498169,0.197928850449931
3.493397396,0.16379451751709,-0.0282822847366333,0.0274277925491333,0.168466066027252
3.498397396,0.14043140411377,-0.04454505443573,0.0272762775421143,0.149830692625381
3.503397396,0.163731575012207,-0.0368607044219971,0.0192437171936035,0.16892915922922
3.508397396,0.21298885345459,-0.045080304145813,0.0307706594467163,0.219871141809392
3.513397396,0.266944885253906,-0.049331545829773,0.0359033346176147,0.273828819910981
3.518397396,0.315882682800293,-0.0493183135986328,0.0495905876159668,0.323532674902274
3.523397396,0.354755401611328,-0.0726222991943359,0.0232431888580322,0.36285760174065
3.528397396,0.406307220458984,-0.0800991058349609,0.0383062362670898,0.415895169351143
3.533397396,0.439753532409668,-0.0842260122299194,0.0445641279220581,0.449959055804402
3.538397396,0.462795257568359,-0.100834131240845,0.0689595937728882,0.478646422763382
3.543397396,0.473653793334961,-0.0958666801452637,0.0658783912658691,0.487727689124219
3.548397396,0.448076248168945,-0.106925845146179,0.0713495016098023,0.466150417690846
3.553397396,0.440801620483398,-0.104547023773193,0.0692389011383057,0.458290491098673
3.558397396,0.408395767211914,-0.101246356964111,0.0623303651809692,0.425350445983903
3.563397396,0.377150535583496,-0.0948970317840576,0.0602707862854004,0.393548651137064
3.568397396,0.343185424804688,-0.0880247354507446,0.0680030584335327,0.360761702243825
3.573397396,0.286222457885742,-0.0751703977584839,0.0819120407104492,0.30705612925111
3.578397396,0.248003959655762,-0.0545072555541992,0.101866006851196,0.273594020886414
3.583397396,0.236049652099609,-0.0595083236694336,0.0939944982528687,0.260951421808928
3.588397396,0.271891593933105,-0.0777204036712647,0.0718754529953003,0.291773166589371
3.593397396,0.283093452453613,-0.0750309228897095,0.0410227775573731,0.295726918778642
3.598397396,0.25835132598877,-0.0820741653442383,0.0466707944869995,0.275063155139245
3.603397396,0.201179504394531,-0.0607666969299316,0.0462408065795898,0.215183634687526
3.608397396,0.137894630432129,-0.070554256439209,0.0297716856002808,0.157731371220772
3.613397396,0.001220703125,-0.0307148694992065,-0.0187669992446899,0.0360151854795011
3.618397396,-0.16153621673584,-0.00582027435302734,-0.0339664220809937,0.16517125276469
3.623397396,-0.32875919342041,0.0318307876586914,-0.0480146408081055,0.333768201051782
3.628397396,-0.47632884979248,0.0617551803588867,-0.0601488351821899,0.484066893951198
3.633397396,-0.582559585571289,0.0873737335205078,-0.0887635946273804,0.595725453360421
3.638397396,-0.657958030700684,0.0990064144134522,-0.100817680358887,0.672960061914135
3.643397396,-0.677172660827637,0.105958223342896,-0.114240288734436,0.694867470267886
3.648397396,-0.684169769287109,0.116170883178711,-0.10834789276123,0.702369712594939
3.653397396,-0.673697471618652,0.118018388748169,-0.112008929252625,0.693067546188969
3.658397396,-0.635920524597168,0.10157310962677,-0.0960323810577393,0.65110231793076
3.663397396,-0.528063774108887,0.0942797660827637,-0.102378129959106,0.54609642492207
3.668397396,-0.415265083312988,0.0670753717422485,-0.0675567388534546,0.42603768363587
3.673397396,-0.324466705322266,0.0430550575256348,-0.0515601634979248,0.331346995310286
3.678397396,-0.324828147888184,0.0480796098709106,-0.0502175092697144,0.332184847311042
3.683397396,-0.345468521118164,0.0467851161956787,-0.0416923761367798,0.351106252306827
3.688397396,-0.332554817199707,0.0470998287200928,-0.0543959140777588,0.340249931339519
3.693397396,-0.257673263549805,0.0363969802856445,-0.0489842891693115,0.264801267949652
3.698397396,-0.19758415222168,0.0401210784912109,-0.0462063550949097,0.206843480437781
3.703397396,-0.155217170715332,0.0427112579345703,-0.0252863168716431,0.162960177528619
3.708397396,-0.195723533630371,0.0521918535232544,-0.0239206552505493,0.203970313865934
3.713397396,-0.333179473876953,0.072476863861084,-0.0394026041030884,0.343240473747147
3.718397396,-0.46331787109375,0.0987998247146606,-0.0474003553390503,0.476100460748318
3.723397396,-0.513589859008789,0.123208999633789,-0.0694637298583984,0.532710250167263
3.728397396,-0.415502548217773,0.105236768722534,-0.0710856914520264,0.434477065673018
3.733397396,-0.263216018676758,0.0690654516220093,-0.0268815755844116,0.273450778389267
3.738397396,-0.100671768188477,0.0555214881896973,-0.000456690788269043,0.114968035242276
3.743397396,0.0214271545410156,0.0229116678237915,0.0110310316085815,0.0332528364585918
3.748397396,0.113012313842773,-0.0117282867431641,0.0253099203109741,0.116404157383554
3.753397396,0.231791496276855,-0.0233654975891113,0.0315976142883301,0.235099241709888
3.758397396,0.336492538452148,-0.0329399108886719,0.0675371885299683,0.344780419974593
3.763397396,0.429986000061035,-0.0514627695083618,0.0804574489593506,0.440465410659005
3.768397396,0.444323539733887,-0.0723103284835815,0.066650390625,0.455076330012361
3.773397396,0.397662162780762,-0.0748867988586426,0.0559569597244263,0.408502643433759
3.778397396,0.347269058227539,-0.0590306520462036,0.0463881492614746,0.355291819600658
3.783397396,0.294425010681152,-0.0480027198791504,0.0209642648696899,0.299048237633863
3.788397396,0.291660308837891,-0.0489628314971924,0.0183901786804199,0.296312830116305
3.793397396,0.29722785949707,-0.0480947494506836,0.0269218683242798,0.302295041937515
3.798397396,0.291712760925293,-0.0451828241348267,0.00818836688995361,0.295304710148315
3.803397396,0.273700714111328,-0.0419634580612183,0.00235867500305176,0.276908967108826
3.808397396,0.281715393066406,-0.0475096702575684,0.0129497051239014,0.285986758996529
3.813397396,0.277268409729004,-0.0567810535430908,0.00912559032440186,0.283169799720738
3.818397396,0.327688217163086,-0.0485042333602905,0.0193448066711426,0.331822919441281
3.823397396,0.394804000854492,-0.0597914457321167,0.0293875932693481,0.40038587226776
3.828397396,0.43509578704834,-0.0629723072052002,0.0392757654190064,0.441380154890554
3.833397396,0.440937042236328,-0.072688102722168,0.0557206869125366,0.450348565495078
3.838397396,0.429859161376953,-0.05815589427948,0.0560363531112671,0.437379788661015
3.843397396,0.419081687927246,-0.0580168962478638,0.044879674911499,0.425452237773345
3.848397396,0.394264221191406,-0.0515486001968384,0.049474835395813,0.400686028744904
3.853397396,0.335166931152344,-0.0392719507217407,0.0542378425598145,0.341790727517752
3.858397396,0.250369071960449,-0.0101082324981689,0.048845648765564,0.255289533592552
3.863397396,0.120545387268066,0.0160648822784424,0.0423059463500977,0.128759713927943
3.868397396,-0.0299959182739258,0.0314010381698608,0.0257725715637207,0.0504975816871283
3.873397396,-0.16051197052002,0.0577055215835571,-0.0274680852890015,0.172767229563056
3.878397396,-0.291441917419434,0.0867677927017212,-0.0203334093093872,0.304763004010638
3.883397396,-0.412284851074219,0.118636012077332,-0.00163578987121582,0.429017456049758
3.888397396,-0.567103385925293,0.147178292274475,0.173895478248596,0.61115246657448
3.893397396,-0.652253150939941,0.158708810806274,0.282971382141113,0.728488478048538
3.898397396,-0.562845230102539,0.147749900817871,0.0236872434616089,0.582396661858291
3.903397396,-0.498604774475098,0.129965424537659,-0.096767783164978,0.524272578496416
3.908397396,-0.438797950744629,0.122125506401062,-0.100858211517334,0.466509013548374
3.913397396,-0.349600791931152,0.0970516204833984,-0.0927227735519409,0.374482634433837
3.918397396,-0.25529670715332,0.0852963924407959,-0.0824552774429321,0.281515107987002
3.923397396,-0.184501647949219,0.0685217380523682,-0.0730371475219727,0.209929777782575
3.928397396,-0.157416343688965,0.0682473182678223,-0.0846925973892212,0.191338542284832
3.933397396,-0.166255950927734,0.0642603635787964,-0.0869635343551636,0.19832572161398
3.938397396,-0.188187599182129,0.0698601007461548,-0.0805397033691406,0.216290660873246
3.943397396,-0.241754531860352,0.0755573511123657,-0.0932263135910034,0.26989870790336
3.948397396,-0.323764801025391,0.0929886102676392,-0.0923911333084106,0.349294502585612
3.953397396,-0.437892913818359,0.121156692504883,-0.114956378936768,0.468662050063059
3.958397396,-0.5123291015625,0.104493141174316,-0.127578496932983,0.538215753894285
3.963397396,-0.560989379882813,0.125018715858459,-0.134796023368835,0.590346281069215
3.968397396,-0.613056182861328,0.136777520179749,-0.136376619338989,0.642763218979863
3.973397396,-0.625306129455566,0.13618528842926,-0.132337808609009,0.653504004507009
3.978397396,-0.602343559265137,0.125852227210999,-0.0909984111785889,0.622042809876611
3.983397396,-0.525956153869629,0.130100250244141,0.125353097915649,0.556119906192874
3.988397396,-0.447695732116699,0.112070679664612,0.241303682327271,0.52078668656245
3.993397396,-0.338364601135254,0.0743851661682129,0.0491740703582764,0.349916912199015
3.998397396,-0.211312294006348,0.0482584238052368,-0.081032395362854,0.231404429872535
4.003397396,-0.0457658767700195,0.0117824077606201,-0.0633050203323364,0.0789991532134596
4.008397396,0.0897626876831055,-0.0218003988265991,-0.0453017950057983,0.102882700780262
4.013397396,0.184406280517578,-0.0311369895935059,-0.0282434225082397,0.189137197109011
4.018397396,0.257167816162109,-0.0375047922134399,-0.0187562704086304,0.260564181706165
4.023397396,0.313318252563477,-0.0507583618164063,-0.0297452211380005,0.318793846967385
4.028397396,0.340225219726563,-0.0627962350845337,-0.0231876373291016,0.346748084066352
4.033397396,0.350234031677246,-0.0759495496749878,-0.0277012586593628,0.359443418039675
4.038397396,0.334263801574707,-0.0763611793518066,-0.0222058296203613,0.343593389960142
4.043397396,0.268486976623535,-0.0508179664611816,0.00537586212158203,0.273306827988704
4.048397396,0.241204261779785,-0.0162091255187988,0.287240147590637,0.375431929966947
4.053397396,0.155505180358887,0.00350546836853027,0.285593867301941,0.325204560957271
4.058397396,0.116497039794922,-0.0231057405471802,0.0520442724227905,0.129668970147953
4.063397396,0.0572052001953125,-0.0251829624176025,-0.0916926860809326,0.110969208369929
4.068397396,0.0644044876098633,-0.00841307640075684,-0.0996173620223999,0.118921556898301
4.073397396,0.118335723876953,-0.0224541425704956,-0.0843503475189209,0.147045956049874
4.078397396,0.186728477478027,-0.0334999561309814,-0.0489988327026367,0.195935338742813
4.083397396,0.221657752990723,-0.0444914102554321,-0.0630245208740234,0.234699244308143
4.088397396,0.28421688079834,-0.0432411432266235,-0.0612274408340454,0.293935080093155
4.093397396,0.368362426757813,-0.0594303607940674,-0.0220315456390381,0.373775646925081
4.098397396,0.412046432495117,-0.0722579956054688,-0.0283656120300293,0.419294751227238
4.103397396,0.423144340515137,-0.0629328489303589,0.00759506225585938,0.427866055390179
4.108397396,0.307663917541504,-0.0409823656082153,0.182598352432251,0.360109426089909
4.113397396,0.237687110900879,-0.0391232967376709,0.21895444393158,0.325525488331433
4.118397396,0.149658203125,-0.0169636011123657,0.0581851005554199,0.1614646941345
4.123397396,0.0452594757080078,0.00982415676116943,-0.0646058320999146,0.0794911802576495
4.128397396,-0.0804510116577148,0.0393694639205933,-0.0995436906814575,0.133907678348295
4.133397396,-0.207353591918945,0.065150260925293,-0.0957795381546021,0.237515870015945
4.138397396,-0.333610534667969,0.0776807069778442,-0.117249727249146,0.362046653924635
4.143397396,-0.448375701904297,0.0961188077926636,-0.0701829195022583,0.463902185228216
4.148397396,-0.542001724243164,0.121973276138306,0.10724937915802,0.565814261488923
4.153397396,-0.52885627746582,0.12150514125824,0.180410265922546,0.571839422930453
4.158397396,-0.360174179077148,0.0918295383453369,0.0408334732055664,0.373932448338794
4.163397396,-0.22138786315918,0.063032865524292,-0.0783418416976929,0.243152569904119
4.168397396,-0.0860013961791992,0.0409145355224609,-0.0446118116378784,0.105168688778571
4.173397396,0.012791633605957,0.0293773412704468,-0.0338555574417114,0.0466138696110757
4.178397396,0.127638816833496,0.00725507736206055,0.0260627269744873,0.130474401502865
4.183397396,0.213410377502441,-0.0265896320343018,0.178105235099792,0.279235514445076
4.188397396,0.26662540435791,-0.0256730318069458,0.261708617210388,0.374485795636301
4.193397396,0.301259994506836,-0.0376393795013428,0.138910412788391,0.333871846612658
4.198397396,0.286480903625488,-0.0572237968444824,-0.00331151485443115,0.292158924556492
4.203397396,0.195846557617188,-0.0364080667495728,-0.0393671989440918,0.203054667042271
4.208397396,0.0680627822875977,-0.0096893310546875,-0.0681214332580566,0.096783031251083
4.213397396,-0.0779581069946289,0.0070120096206665,-0.0289853811264038,0.0834672812792487
4.218397396,-0.227619171142578,0.0491743087768555,0.0508928298950195,0.238366691989546
4.223397396,-0.32947826385498,0.0690054893493652,0.0897153615951538,0.348376994101773
4.228397396,-0.385454177856445,0.0637080669403076,-0.0416569709777832,0.392898134700717
4.233397396,-0.417393684387207,0.071137547492981,-0.112427711486816,0.438084499542961
4.238397396,-0.429139137268066,0.0727932453155518,-0.145619869232178,0.458981919049048
4.243397396,-0.365184783935547,0.0626758337020874,-0.145190715789795,0.397955437831746
4.248397396,-0.270787239074707,0.032539963722229,-0.132077574729919,0.303033106823799
4.253397396,-0.174201011657715,0.0261631011962891,-0.0991305112838745,0.202132032578166
4.258397396,-0.10206127166748,0.0158687829971313,-0.0220730304718018,0.105619790391775
4.263397396,-0.05615234375,0.0127444267272949,0.0143935680389404,0.0593521770629954
4.268397396,-0.014617919921875,0.00442516803741455,0.0149304866790771,0.02135849075838
4.273397396,0.0196094512939453,-0.00539028644561768,-0.026323676109314,0.033264420811484
4.278397396,0.0167999267578125,-0.000686883926391602,-0.0312529802322388,0.0354888450360519
4.283397396,0.00459384918212891,0.00836288928985596,-0.0419942140579224,0.0430645490156943
4.288397396,-0.107176780700684,0.0201917886734009,-0.0357614755630493,0.114775667219321
4.293397396,-0.233057022094727,0.0488661527633667,-0.0347496271133423,0.240647071492821
4.298397396,-0.358633995056152,0.0648130178451538,-0.0291006565093994,0.365603498207294
4.303397396,-0.402780532836914,0.0735548734664917,0.141276717185974,0.433129989566534
4.308397396,-0.386083602905273,0.0650357007980347,0.356338977813721,0.529403114762216
4.313397396,-0.396138191223145,0.0807172060012817,0.40880811214447,0.574947655395971
4.318397396,-0.431689262390137,0.0763243436813355,0.35321831703186,0.562977978422022
4.323397396,-0.477218627929688,0.0718369483947754,0.168535351753235,0.51117739659374
4.328397396,-0.459540367126465,0.0732969045639038,-0.0148683786392212,0.465586569738363
4.333397396,-0.35962963104248,0.0567671060562134,-0.136905908584595,0.388971983128761
4.338397396,-0.192489624023438,0.0382425785064697,-0.138015508651733,0.239922968462597
4.343397396,-0.0320014953613281,-0.00502920150756836,-0.0986778736114502,0.103859093552958
4.348397396,0.147078514099121,-0.0353317260742188,-0.0921529531478882,0.177123084184038
4.353397396,0.289727210998535,-0.0497877597808838,-0.0700725317001343,0.302209922927516
4.358397396,0.384743690490723,-0.0708037614822388,-0.0478335618972778,0.39411791339171
4.363397396,0.468202590942383,-0.0871661901473999,0.0830889940261841,0.483441197870285
4.368397396,0.505329132080078,-0.0960855484008789,0.28785240650177,0.589448023382183
4.373397396,0.49265193939209,-0.0735883712768555,0.381566524505615,0.627466488664743
4.378397396,0.406645774841309,-0.0599322319030762,0.337423205375671,0.531796086994973
4.383397396,0.276210784912109,-0.0427466630935669,0.254775762557983,0.37819355374517
4.388397396,0.115340232849121,-0.0156055688858032,0.11240291595459,0.161806423262594
4.393397396,-0.00121307373046875,0.00398123264312744,-0.0340448617935181,0.0342983144742421
4.398397396,-0.075831413269043,0.0144925117492676,-0.0967892408370972,0.1238086962899
4.403397396,-0.0672702789306641,0.0138601064682007,-0.0773130655288696,0.103415197530104
4.408397396,0.0154228210449219,0.00126743316650391,-0.0664241313934326,0.0682028960322598
4.413397396,0.118854522705078,-0.0204306840896606,-0.0428158044815064,0.127972667133345
4.418397396,0.226664543151855,-0.023817777633667,-0.0105339288711548,0.228155791754469
4.423397396,0.344293594360352,-0.0487668514251709,0.00954675674438477,0.347861215831589
4.428397396,0.438404083251953,-0.0751107931137085,0.040439248085022,0.446626358648745
4.433397396,0.533924102783203,-0.0863440036773682,0.0554614067077637,0.543696792466067
4.438397396,0.56610107421875,-0.0887610912322998,0.0838468074798584,0.579119369968693
4.443397396,0.55078125,-0.0774028301239014,0.0767560005187988,0.561464751412227
4.448397396,0.501838684082031,-0.0739463567733765,0.0853636264801025,0.514390005003086
4.453397396,0.414880752563477,-0.0589909553527832,0.0713851451873779,0.425090355823905
4.458397396,0.292590141296387,-0.0513947010040283,0.0598490238189697,0.303038465755119
4.463397396,0.158603668212891,-0.0192584991455078,0.0303292274475098,0.162621878594133
4.468397396,0.0161924362182617,0.00146055221557617,0.0216995477676392,0.027114545483503
4.473397396,-0.0821380615234375,0.024449348449707,-0.0172080993652344,0.0874102423873025
4.478397396,-0.148296356201172,0.0431053638458252,-0.0188251733779907,0.155577211723109
4.483397396,-0.168264389038086,0.0250841379165649,-0.00645339488983154,0.170246189087984
4.488397396,-0.154481887817383,0.0178688764572144,-0.013369083404541,0.156085498367219
4.493397396,-0.0890674591064453,0.00744211673736572,-0.027506947517395,0.0935148626419117
4.498397396,-0.00808429718017578,0.0122412443161011,-0.00449883937835693,0.0153441675908513
4.503397396,0.0620059967041016,-0.0135564804077148,-0.0116665363311768,0.064533943458311
4.508397396,0.118808746337891,-0.0287666320800781,-0.00244498252868652,0.122266165668092
4.513397396,0.164141654968262,-0.0384255647659302,0.0199683904647827,0.169757896844461
4.518397396,0.169101715087891,-0.0417982339859009,0.0223114490509033,0.175614017574786
4.523397396,0.180942535400391,-0.0412033796310425,0.0204765796661377,0.186700856786907
4.528397396,0.183290481567383,-0.0327931642532349,0.0109291076660156,0.186521413380121
4.533397396,0.135683059692383,-0.0296764373779297,-0.0114598274230957,0.139362517441025
4.538397396,0.0561504364013672,-0.0185576677322388,-0.041314959526062,0.0721400334097809
4.543397396,-0.00947284698486328,-0.00859951972961426,-0.0541548728942871,0.0556456361970555
4.548397396,-0.0650081634521484,0.000745058059692383,-0.0677891969680786,0.0939254579574171
4.553397396,-0.128095626831055,0.0180840492248535,-0.0723024606704712,0.148199757991074
4.558397396,-0.157608032226563,0.0256026983261108,-0.0761936902999878,0.176921644875457
4.563397396,-0.181148529052734,0.0247602462768555,-0.06764817237854,0.19494649163249
4.568397396,-0.179325103759766,0.0215857028961182,-0.0747218132019043,0.195465559053636
4.573397396,-0.162487030029297,0.0307351350784302,-0.045832633972168,0.17160219635208
4.578397396,-0.11754322052002,0.0123894214630127,-0.031020998954773,0.122197417446352
4.583397396,-0.0682964324951172,0.00211620330810547,-0.025985598564148,0.0731035726947622
4.588397396,-0.0233049392700195,-0.0043938159942627,0.00391626358032227,0.024036699727735
4.593397396,0.00429058074951172,-0.000908255577087402,0.015500545501709,0.0161090323176764
4.598397396,0.0297918319702148,-0.0047076940536499,0.0288674831390381,0.0417498169843526
4.603397396,0.0276823043823242,-0.00240886211395264,0.0278306007385254,0.0393275339942246
4.608397396,0.0217552185058594,-0.00193130970001221,0.0660461187362671,0.0695637066976749
4.613397396,0.00890827178955078,-0.0045701265335083,0.0631855726242065,0.0639739005427812
4.618397396,-0.0108299255371094,0.000813603401184082,0.0673812627792358,0.0682508887221125
4.623397396,-0.0327730178833008,0.000945210456848145,0.0844312906265259,0.0905737653012602
4.628397396,-0.0530643463134766,0.0103727579116821,0.0817753076553345,0.0980337691741756
4.633397396,-0.0828876495361328,0.0275181531906128,0.0827592611312866,0.120319185933264
4.638397396,-0.103679656982422,0.0164968967437744,0.0889499187469482,0.137599807119255
4.643397396,-0.112751960754395,0.0277657508850098,0.0920703411102295,0.148192068911676
4.648397396,-0.137032508850098,0.0286836624145508,0.101578831672668,0.172970864642715
4.653397396,-0.14300537109375,0.0372637510299683,0.092400074005127,0.174289692691902
4.658397396,-0.146956443786621,0.0399394035339356,0.0891624689102173,0.176468972307379
4.663397396,-0.138318061828613,0.0323994159698486,0.103516697883606,0.175776321283434
4.668397396,-0.0940465927124023,0.0287588834762573,0.114086389541626,0.150623833632852
4.673397396,-0.0715503692626953,0.013336181640625,0.107797265052795,0.130067518755616
4.678397396,-0.0351963043212891,0.0218005180358887,0.116638779640198,0.123768523221635
4.683397396,-0.0273666381835938,0.0282356739044189,0.11797821521759,0.124358535823788
4.688397396,-0.0348911285400391,0.0226049423217773,0.11932110786438,0.126356246581447
4.693397396,-0.0562705993652344,0.0327646732330322,0.0899585485458374,0.111051540383121
4.698397396,-0.074183464050293,0.033633828163147,0.106508374214172,0.134083759319149
4.703397396,-0.116646766662598,0.0483427047729492,0.0860313177108765,0.152790290609949
4.708397396,-0.13430118560791,0.0474615097045898,0.0767803192138672,0.161816627012531
4.713397396,-0.170313835144043,0.050511360168457,0.0718545913696289,0.191627978772506
4.718397396,-0.192916870117188,0.0608136653900147,0.0484814643859863,0.208004021747153
4.723397396,-0.203607559204102,0.0546888113021851,0.0544750690460205,0.21774856462045
4.728397396,-0.207516670227051,0.0447959899902344,0.0231838226318359,0.213558747826335
4.733397396,-0.209432601928711,0.0534080266952515,0.0113953351974487,0.216435407755692
4.738397396,-0.226057052612305,0.056792140007019,0.0166622400283813,0.233676632218762
4.743397396,-0.248327255249023,0.0543606281280518,0.0132967233657837,0.254555114743853
4.748397396,-0.263619422912598,0.0590041875839233,0.00563538074493408,0.270200762036953
4.753397396,-0.281234741210938,0.0577982664108276,-0.00233721733093262,0.287122067854305
4.758397396,-0.274380683898926,0.0679247379302979,-0.00104832649230957,0.282665223733264
4.763397396,-0.279499053955078,0.061537504196167,0.00479710102081299,0.286233467230303
4.768397396,-0.285452842712402,0.0542823076248169,0.000186562538146973,0.290568286533901
4.773397396,-0.297179222106934,0.0510309934616089,0.0152226686477661,0.301912871515145
4.778397396,-0.296245574951172,0.0666755437850952,0.0201804637908936,0.304326009299245
4.783397396,-0.28960132598877,0.0564590692520142,0.0131744146347046,0.295347455916289
4.788397396,-0.240415573120117,0.044019341468811,0.027506947517395,0.245955244676236
4.793397396,-0.181514739990234,0.0381433963775635,0.0453215837478638,0.19093602455889
4.798397396,-0.14942455291748,0.0249717235565186,0.0439879894256592,0.157753691575456
4.803397396,-0.0972127914428711,0.0216063261032105,0.0421960353851318,0.108155746726731
4.808397396,-0.049774169921875,0.000255227088928223,0.0616374015808106,0.0792256423509
4.813397396,-0.0194664001464844,-0.00438475608825684,0.0777229070663452,0.0802434863615751
4.818397396,-0.00735664367675781,-0.0032578706741333,0.0766769647598267,0.0770979302724519
4.823397396,0.00122928619384766,-0.0131877660751343,0.07184898853302,0.0730596021876446
4.828397396,-0.0170602798461914,-0.00749528408050537,0.0706702470779419,0.073085677488378
4.833397396,-0.00367641448974609,-0.00576853752136231,0.0734543800354004,0.073772203403591
4.838397396,-0.0108442306518555,-0.00976371765136719,0.0732299089431763,0.074669586075136
4.843397396,-0.0244741439819336,-0.00256752967834473,0.0768389701843262,0.0806833518842974
4.848397396,-0.0145320892333984,-0.0210840702056885,0.0677634477615356,0.0724403512309005
4.853397396,-0.0250940322875977,-0.020370364189148,0.07818603515625,0.0846032995048295
4.858397396,-0.014002799987793,-0.0080024003982544,0.0690780878067017,0.0709358797412318
4.863397396,0.00395107269287109,-0.0133578777313232,0.0735068321228027,0.0748150936752687
4.868397396,0.0416078567504883,-0.0194031000137329,0.0621436834335327,0.0772627427949539
4.873397396,0.0669765472412109,-0.0226842164993286,0.0783692598342896,0.105556489357675
4.878397396,0.0821542739868164,-0.0266201496124268,0.0743288993835449,0.113941837721085
4.883397396,0.12444019317627,-0.0354892015457153,0.0802916288375855,0.152287854950722
4.888397396,0.153031349182129,-0.0431745052337647,0.0609591007232666,0.170289881366076
4.893397396,0.182365417480469,-0.0435919761657715,0.0598875284194946,0.196834757954632
4.898397396,0.190464973449707,-0.0355517864227295,0.0751349925994873,0.207812662612195
4.903397396,0.200115203857422,-0.057982325553894,0.059099555015564,0.216565930595218
4.908397396,0.19655704498291,-0.0430067777633667,0.0152852535247803,0.201786753384156
4.913397396,0.212667465209961,-0.0537056922912598,0.0249091386795044,0.220753748174449
4.918397396,0.285331726074219,-0.0716147422790527,0.020088791847229,0.294866791575568
4.923397396,0.438974380493164,-0.0956811904907227,0.0197697877883911,0.449715734050163
4.928397396,0.606456756591797,-0.133873462677002,0.0275096893310547,0.621666055557213
4.933397396,0.668702125549316,-0.135890364646912,0.0205053091049194,0.682677956008199
4.938397396,0.617276191711426,-0.133950710296631,-0.0131227970123291,0.631779152429201
4.943397396,0.486315727233887,-0.113328337669373,-0.0387493371963501,0.500847092241818
4.948397396,0.455631256103516,-0.101394295692444,-0.0697733163833618,0.471962880337603
4.953397396,0.481911659240723,-0.0972498655319214,-0.0755898952484131,0.497403473974388
4.958397396,0.497773170471191,-0.0888849496841431,-0.110741376876831,0.517631448111367
4.963397396,0.44041633605957,-0.0968253612518311,-0.106684446334839,0.463382423856856
4.968397396,0.423600196838379,-0.0814450979232788,-0.11648166179657,0.446809140766095
4.973397396,0.397220611572266,-0.0714312791824341,-0.140089631080627,0.427213935446621
4.978397396,0.38459587097168,-0.0701155662536621,-0.14004647731781,0.415262799211131
4.983397396,0.404359817504883,-0.0807968378067017,-0.120557546615601,0.429615075454898
4.988397396,0.422384262084961,-0.0887519121170044,-0.132833003997803,0.451586064568607
4.993397396,0.432892799377441,-0.0702043771743774,-0.101608037948608,0.450165551439741
4.998397396,0.393269538879395,-0.0610717535018921,-0.101336002349854,0.410681962908596
5.003397396,0.36962890625,-0.059551477432251,-0.0903135538101196,0.385134320467222
5.008397396,0.327143669128418,-0.0505772829055786,-0.0777848958969116,0.340046367171608
5.013397396,0.282392501831055,-0.0513323545455933,-0.0759950876235962,0.296910405773383
5.018397396,0.20930290222168,-0.0438075065612793,-0.0643301010131836,0.223305092655544
5.023397396,0.116198539733887,-0.0193581581115723,-0.0786831378936768,0.141661127732895
5.028397396,0.00353813171386719,-0.00660192966461182,-0.0908300876617432,0.091138403957723
5.033397396,-0.062108039855957,-0.000652790069580078,-0.0841983556747437,0.104628857625202
5.038397396,-0.0649299621582031,0.0111984014511108,-0.0912660360336304,0.112564619282516
5.043397396,-0.0553436279296875,-0.0040278434753418,-0.0654482841491699,0.0858057024535784
5.048397396,-0.0470819473266602,-0.00110363960266113,-0.0646079778671265,0.079950726003721
5.053397396,-0.0244941711425781,0.00340688228607178,-0.0608359575271606,0.0656702748214103
5.058397396,0.0284814834594727,-0.0186581611633301,-0.0418058633804321,0.0539170853350992
5.063397396,0.122191429138184,-0.0269780158996582,-0.0172739028930664,0.126320807541248
5.068397396,0.192667961120605,-0.0460581779479981,-0.00817942619323731,0.198265483660448
5.073397396,0.243906021118164,-0.0623995065689087,0.00762259960174561,0.251876854002955
5.078397396,0.264423370361328,-0.069707989692688,0.0149197578430176,0.273864057142105
5.083397396,0.275668144226074,-0.0777665376663208,0.00484633445739746,0.286468230488702
5.088397396,0.240377426147461,-0.0692543983459473,-0.0154865980148315,0.250633823355129
5.093397396,0.184992790222168,-0.0644596815109253,-0.0305725336074829,0.198272698034433
5.098397396,0.13349437713623,-0.0449972152709961,-0.0556871891021729,0.151481223718439
5.103397396,0.0504446029663086,-0.0298386812210083,-0.0827395915985107,0.101394501247976
5.108397396,-0.0300302505493164,-0.017446756362915,-0.0999842882156372,0.105844523456007
5.113397396,-0.135540008544922,0.00230848789215088,-0.135255694389343,0.19149549837385
5.118397396,-0.225077629089355,0.0177689790725708,-0.162497282028198,0.278174481935922
5.123397396,-0.29548454284668,0.0344308614730835,-0.19401741027832,0.355161026541759
5.128397396,-0.333098411560059,0.0460233688354492,-0.207674860954285,0.395223417999465
5.133397396,-0.365345001220703,0.0623623132705689,-0.208398580551147,0.425201124656492
5.138397396,-0.364577293395996,0.0488882064819336,-0.23239141702652,0.435100482992796
5.143397396,-0.35214900970459,0.0456680059432983,-0.23111480474472,0.423684487295618
5.148397396,-0.34377384185791,0.0530986785888672,-0.247121095657349,0.426695160427816
5.153397396,-0.33261775970459,0.0520268678665161,-0.256995975971222,0.423542560690542
5.158397396,-0.321176528930664,0.0506511926651001,-0.272712111473084,0.424372244378039
5.163397396,-0.322135925292969,0.0601733922958374,-0.267795324325562,0.423210027333213
5.168397396,-0.322583198547363,0.0595529079437256,-0.265625357627869,0.422093946230617
5.173397396,-0.36190128326416,0.0657875537872315,-0.266444563865662,0.454195163641266
5.178397396,-0.417801856994629,0.0793673992156982,-0.274292647838593,0.506057341044205
5.183397396,-0.465478897094727,0.0860080718994141,-0.279998481273651,0.549970127905079
5.188397396,-0.500336647033691,0.0952919721603394,-0.280844807624817,0.581627996483099
5.193397396,-0.526297569274902,0.093345046043396,-0.28138393163681,0.604052436489502
5.198397396,-0.542126655578613,0.086647629737854,-0.274666011333466,0.613881535974064
5.203397396,-0.530594825744629,0.0942667722702026,-0.255580425262451,0.596438133622047
5.208397396,-0.517995834350586,0.0926667451858521,-0.251900196075439,0.583404249942306
5.213397396,-0.4764404296875,0.0784549713134766,-0.24204409122467,0.540125918338849
5.218397396,-0.414787292480469,0.0692135095596314,-0.208828449249268,0.469519253199156
5.223397396,-0.326686859130859,0.0610349178314209,-0.173898935317993,0.375087196300015
5.228397396,-0.173995971679688,0.0232007503509522,-0.155561208724976,0.234546717388202
5.233397396,-0.0762033462524414,0.00940179824829102,-0.116950035095215,0.139902303408997
5.238397396,0.00501632690429688,0.0071561336517334,-0.097456693649292,0.0978477435687926
5.243397396,0.0783805847167969,-0.0085526704788208,-0.0801695585250855,0.112444752420793
5.248397396,0.175004959106445,-0.0291616916656494,-0.0588779449462891,0.186932480788517
5.253397396,0.260477066040039,-0.0526481866836548,-0.0353957414627075,0.268091387417796
5.258397396,0.340366363525391,-0.0583796501159668,-0.017342209815979,0.345771886087436
5.263397396,0.37973690032959,-0.0779491662979126,-0.0121397972106934,0.387844763629447
5.268397396,0.392599105834961,-0.084362268447876,-0.0185337066650391,0.401988244259491
5.273397396,0.382655143737793,-0.0827747583389282,-0.0121041536331177,0.391692647597875
5.278397396,0.357346534729004,-0.0767182111740112,-0.0460265874862671,0.368375727436266
5.283397396,0.316122055053711,-0.0811336040496826,-0.0512906312942505,0.330373340716279
5.288397396,0.306818008422852,-0.0678212642669678,-0.0790762901306152,0.324021718161231
5.293397396,0.289775848388672,-0.0734299421310425,-0.0979784727096558,0.314581912743342
5.298397396,0.289141654968262,-0.0726057291030884,-0.113494992256165,0.318991538764907
5.303397396,0.301251411437988,-0.0737738609313965,-0.14645779132843,0.342993994249035
5.308397396,0.343469619750977,-0.0746244192123413,-0.124801278114319,0.372981960225461
5.313397396,0.383745193481445,-0.0843740701675415,-0.168654203414917,0.427578761827887
5.318397396,0.434980392456055,-0.112505793571472,-0.157559037208557,0.476120095789348
5.323397396,0.46702766418457,-0.108028531074524,-0.156087756156921,0.504131322436841
5.328397396,0.474432945251465,-0.101364135742188,-0.17368757724762,0.515294752588155
5.333397396,0.479419708251953,-0.121077537536621,-0.189225912094116,0.529442605543009
5.338397396,0.472796440124512,-0.110401391983032,-0.186249256134033,0.520013198444696
5.343397396,0.463962554931641,-0.109909415245056,-0.205181837081909,0.519076986781839
5.348397396,0.425845146179199,-0.0981183052062988,-0.19800066947937,0.479766146633147
5.353397396,0.38010311126709,-0.0844047069549561,-0.203496992588043,0.439333080638656
5.358397396,0.291069030761719,-0.0812112092971802,-0.203325390815735,0.364221986890479
5.363397396,0.204387664794922,-0.0630561113357544,-0.208346724510193,0.29859462204004
5.368397396,0.152536392211914,-0.046744704246521,-0.187308192253113,0.246042226475966
5.373397396,0.10807991027832,-0.0389708280563355,-0.198464870452881,0.229321384194857
5.378397396,0.0679607391357422,-0.0412102937698364,-0.166381597518921,0.184390309857706
5.383397396,0.0467796325683594,-0.0433082580566406,-0.159473657608032,0.171743374573854
5.388397396,0.010040283203125,-0.0332930088043213,-0.141307950019836,0.145523772837472
5.393397396,-0.0158424377441406,-0.0209349393844605,-0.131439328193665,0.134035635249399
5.398397396,-0.0251665115356445,-0.0307658910751343,-0.0966824293136597,0.104534135546775
5.403397396,-0.031097412109375,-0.011216402053833,-0.0772993564605713,0.0840716790848856
5.408397396,-0.0393943786621094,-0.0208590030670166,-0.0705358982086182,0.08344056576522
5.413397396,-0.0731077194213867,-0.0164438486099243,-0.0472027063369751,0.0885620363453609
5.418397396,-0.106438636779785,-0.00940227508544922,-0.0456287860870361,0.1161876598271
5.423397396,-0.151009559631348,-0.00700116157531738,-0.0189094543457031,0.152349830413786
5.428397396,-0.192479133605957,0.0073627233505249,0.000448107719421387,0.192620423032877
5.433397396,-0.267338752746582,0.0251674652099609,-0.0152310132980347,0.268952400605158
5.438397396,-0.343574523925781,0.0502526760101318,-0.0296103954315186,0.348490402241751
5.443397396,-0.421493530273438,0.068401575088501,-0.0232405662536621,0.427639679469462
5.448397396,-0.492427825927734,0.0830000638961792,-0.0174261331558228,0.499677740620342
5.453397396,-0.529170989990234,0.0892316102981567,-0.0279933214187622,0.537371233848353
5.458397396,-0.567815780639648,0.0874394178390503,-0.0195252895355225,0.574840542643689
5.463397396,-0.584410667419434,0.0894834995269775,-0.0368674993515015,0.59237010170134
5.468397396,-0.581748008728027,0.0974764823913574,-0.0395756959915161,0.591184104988988
5.473397396,-0.543885231018066,0.084560751914978,-0.0317394733428955,0.551333891078797
5.478397396,-0.504860877990723,0.0728051662445068,-0.0208495855331421,0.510509356990014
5.483397396,-0.45881175994873,0.0641093254089356,-0.0138694047927856,0.463476641332599
5.488397396,-0.393457412719727,0.0554878711700439,-0.00925314426422119,0.397458501166926
5.493397396,-0.335962295532227,0.0373282432556152,0.0144152641296387,0.338336905471101
5.498397396,-0.254474639892578,0.028085470199585,0.0281403064727783,0.257561668019857
5.503397396,-0.18858528137207,0.0107321739196777,0.0172728300094605,0.189678513711387
5.508397396,-0.136855125427246,-0.0051649808883667,0.00813198089599609,0.137193773534287
5.513397396,-0.093836784362793,0.0022355318069458,0.0123487710952759,0.0946722337835793
5.518397396,-0.09088134765625,-0.0173022747039795,0.0255247354507446,0.0959703088542422
5.523397396,-0.00426483154296875,-0.0711352825164795,0.0123705863952637,0.0723287537190566
5.528397396,0.0592536926269531,-0.126391649246216,-0.00329315662384033,0.139630562448402
5.533397396,0.110932350158691,-0.171280860900879,-0.00544178485870361,0.204139003243195
5.538397396,0.118189811706543,-0.198273301124573,0.0100753307342529,0.231046847672649
5.543397396,0.142190933227539,-0.218836426734924,0.032138466835022,0.262945857941771
5.548397396,0.155945777893066,-0.237277150154114,0.0412929058074951,0.286922699865239
5.553397396,0.124977111816406,-0.237978100776672,0.102384686470032,0.287637756476456
5.558397396,0.0913076400756836,-0.218611717224121,0.181944012641907,0.298716909096402
5.563397396,0.0314807891845703,-0.181529879570007,0.220976829528809,0.287706267663721
5.568397396,-0.0111513137817383,-0.15704345703125,0.28011953830719,0.321331534301908
5.573397396,-0.046116828918457,-0.122108459472656,0.347262382507324,0.370983018599157
5.578397396,-0.101604461669922,-0.0788955688476563,0.364402174949646,0.386441357159223
5.583397396,-0.195326805114746,-0.032470703125,0.376241683959961,0.425164335412547
5.588397396,-0.277780532836914,0.0189632177352905,0.386287450790405,0.476171841553221
5.593397396,-0.297756195068359,0.0555640459060669,0.422013163566589,0.519462438606026
5.598397396,-0.321510314941406,0.092664361000061,0.46944522857666,0.576484508939021
5.603397396,-0.331877708435059,0.148058772087097,0.484785914421082,0.605872590706271
5.608397396,-0.368152618408203,0.196838617324829,0.502096652984619,0.652979969562255
5.613397396,-0.422819137573242,0.283569097518921,0.403053879737854,0.649338036878799
5.618397396,-0.455862045288086,0.355017185211182,0.347344040870667,0.674162657567052
5.623397396,-0.438704490661621,0.416103720664978,0.291268825531006,0.671149361322889
5.628397396,-0.369830131530762,0.444035172462463,0.217921733856201,0.617601362254588
5.633397396,-0.247814178466797,0.469329476356506,0.161611795425415,0.554797617917446
5.638397396,-0.102293968200684,0.505119919776917,0.123092770576477,0.529869813684337
5.643397396,0.0393705368041992,0.503708362579346,0.0926030874252319,0.513660866235011
5.648397396,0.162654876708984,0.520028233528137,0.078234076499939,0.550460301301927
5.653397396,0.275364875793457,0.522977232933044,0.0700428485870361,0.595178125963342
5.658397396,0.381983757019043,0.540562868118286,0.065051794052124,0.665095136746654
5.663397396,0.513290405273438,0.543579936027527,0.0723329782485962,0.751117997880341
5.668397396,0.610549926757813,0.55721926689148,0.0949745178222656,0.832036467647074
5.673397396,0.678905487060547,0.557700514793396,0.119083166122437,0.886635959690042
5.678397396,0.742190361022949,0.565945982933044,0.136807560920715,0.943322689390275
5.683397396,0.828109741210938,0.554149031639099,0.122327208518982,1.00389782283808
5.688397396,0.873836517333984,0.530326008796692,0.14184033870697,1.03196638332706
5.693397396,0.939341545104981,0.551910042762756,0.146621227264404,1.09930205946642
5.698397396,0.945422172546387,0.560795664787293,0.232297658920288,1.12351104325965
5.703397396,0.899282455444336,0.593565225601196,0.288740396499634,1.11552661478055
5.708397396,0.851100921630859,0.65763258934021,0.321981310844421,1.12273120821339
5.713397396,0.827851295471191,0.680922031402588,0.380463838577271,1.13742925614198
5.718397396,0.820723533630371,0.68747341632843,0.49716329574585,1.18041440157679
5.723397396,0.78841495513916,0.713633179664612,0.560523867607117,1.20210542913779
5.728397396,0.692639350891113,0.799834847450256,0.582566738128662,1.20783651955573
5.733397396,0.580728530883789,0.834834218025208,0.552677750587463,1.15743098894173
5.738397396,0.469965934753418,0.884937644004822,0.491191983222961,1.11590867815783
5.743397396,0.339262962341309,0.946273565292358,0.434152483940125,1.09499835492986
5.748397396,0.207012176513672,1.0061491727829,0.335642099380493,1.08066915288315
5.753397396,0.0647306442260742,1.05741167068481,0.225008964538574,1.08302286759103
5.758397396,-0.0208072662353516,1.06657600402832,0.128412365913391,1.07447989763266
5.763397396,-0.0434894561767578,1.04978060722351,0.00266671180725098,1.05068442810055
5.768397396,-0.0118961334228516,1.01533770561218,-0.0785061120986939,1.01843771732251
5.773397396,0.0107107162475586,0.977630913257599,-0.157972574234009,0.990369757317711
5.778397396,0.0670747756958008,0.926427960395813,-0.213385105133057,0.953048264481098
5.783397396,0.118924140930176,0.844183802604675,-0.225084066390991,0.881732431534178
5.788397396,0.154264450073242,0.803169250488281,-0.274752497673035,0.862767234231735
5.793397396,0.161771774291992,0.735129952430725,-0.277179956436157,0.802131461899064
5.798397396,0.137360572814941,0.674799919128418,-0.22650945186615,0.7249340587974
5.803397396,0.128616333007813,0.621841907501221,-0.147564768791199,0.651923983321317
5.808397396,0.0729541778564453,0.576992988586426,-0.0366610288619995,0.582741153499412
5.813397396,0.0373067855834961,0.534270763397217,0.062747597694397,0.539234926435627
5.818397396,0.0284194946289063,0.489516735076904,0.208934903144836,0.532999151357164
5.823397396,0.00468730926513672,0.431753396987915,0.3246910572052,0.540238141293061
5.828397396,0.00303077697753906,0.39052939414978,0.4295734167099,0.580564995196834
5.833397396,0.0119895935058594,0.359159588813782,0.522569060325623,0.634206420181099
5.838397396,0.038787841796875,0.312986254692078,0.59544038772583,0.673805719501193
5.843397396,0.0778112411499023,0.28748095035553,0.598339915275574,0.668364077639267
5.848397396,0.108182907104492,0.256336688995361,0.569108843803406,0.633480004112153
5.853397396,0.119997024536133,0.242999911308289,0.514728426933289,0.581716078758856
5.858397396,0.120375633239746,0.225304007530212,0.406675696372986,0.480247135241322
5.863397396,0.110842704772949,0.231613993644714,0.289266228675842,0.38678947543306
5.868397396,0.0817461013793945,0.246182441711426,0.17507815361023,0.312954596657881
5.873397396,0.0109329223632813,0.261991500854492,0.0873639583587647,0.276390188920488
5.878397396,0.00248241424560547,0.285941481590271,0.0138108730316162,0.286285580301247
5.883397396,-0.0271835327148438,0.343113780021668,-0.12848687171936,0.367389284949689
5.888397396,-0.0523366928100586,0.361083984375,-0.119017243385315,0.383778422282258
5.893397396,0.0833644866943359,0.317437648773193,-0.0268937349319458,0.329301642083748
5.898397396,0.0532350540161133,0.329918146133423,-0.131343007087708,0.359069547072785
5.903397396,0.0623693466186523,0.264607787132263,0.0873229503631592,0.285538988701714
5.908397396,0.180729866027832,0.215329527854919,0.00808632373809815,0.281239184098265
5.913397396,0.276036262512207,0.133802533149719,0.124560952186584,0.331080906892286
5.918397396,0.284816741943359,0.135621905326843,0.101387739181519,0.331350798025375
5.923397396,0.275649070739746,0.0967286825180054,0.112243413925171,0.31294956812709
5.928397396,0.242206573486328,0.0518714189529419,0.043177604675293,0.251433836007956
5.933397396,0.214075088500977,-0.0000638961791992188,0.0821655988693237,0.229301838712596
5.938397396,0.19798755645752,-0.0125757455825806,0.0437830686569214,0.20316047595434
5.943397396,0.169405937194824,-0.0651841163635254,0.018368124961853,0.182441027725577
5.948397396,0.124226570129395,-0.109660506248474,0.016876220703125,0.166560722206664
5.953397396,0.111907005310059,-0.175559878349304,0.040397047996521,0.212076331094069
5.958397396,0.183393478393555,-0.182206749916077,0.0118135213851929,0.258789541751179
5.963397396,0.131505966186523,-0.222486138343811,0.0458517074584961,0.262481008788545
5.968397396,0.143359184265137,-0.2665935754776,0.013158917427063,0.302980440469263
5.973397396,0.0931100845336914,-0.275580644607544,0.0354131460189819,0.293032882856417
5.978397396,0.0608539581298828,-0.287361264228821,-0.0205745697021484,0.294453754123951
5.983397396,-0.0494499206542969,-0.286280274391174,-0.0362398624420166,0.292771272135807
5.988397396,-0.0977258682250977,-0.322999000549316,-0.0853430032730103,0.348083507055223
5.993397396,-0.229398727416992,-0.299692153930664,-0.0994715690612793,0.390299572533265
5.998397396,-0.293674468994141,-0.27960741519928,-0.15695071220398,0.434808608970371
6.003397396,-0.388928413391113,-0.279309868812561,-0.162650465965271,0.505701975117498
6.008397396,-0.435205459594727,-0.294695854187012,-0.186403870582581,0.557670011300802
6.013397396,-0.417026519775391,-0.289287686347961,-0.144448041915894,0.527696617841982
6.018397396,-0.460390090942383,-0.28960645198822,-0.148556470870972,0.563826177034003
6.023397396,-0.416882514953613,-0.327496647834778,-0.102091073989868,0.539877461101564
6.028397396,-0.385025978088379,-0.333218336105347,-0.0408080816268921,0.510827527494159
6.033397396,-0.294727325439453,-0.326451659202576,-0.0426615476608276,0.44187655493998
6.038397396,-0.250140190124512,-0.345646023750305,-0.00867092609405518,0.426751067261995
6.043397396,-0.147021293640137,-0.381547451019287,-0.0256967544555664,0.409699940630316
6.048397396,-0.134899139404297,-0.377625465393066,0.0024571418762207,0.401004747442658
6.053397396,-0.0462436676025391,-0.37408173084259,-0.006294846534729,0.376981754513953
6.058397396,-0.0242452621459961,-0.389412820339203,-0.0285531282424927,0.391210248477072
6.063397396,-0.000116348266601563,-0.397200703620911,-0.0597807168960571,0.401674179661168
6.068397396,0.050602912902832,-0.388753831386566,-0.104532837867737,0.405730588450845
6.073397396,0.0662670135498047,-0.380408227443695,-0.141908168792725,0.411387487609636
6.078397396,0.111263275146484,-0.407907783985138,-0.15988028049469,0.452028738824258
6.083397396,0.110966682434082,-0.402636528015137,-0.205158829689026,0.46531701419772
6.088397396,0.143445014953613,-0.38275134563446,-0.248445630073547,0.478330739136295
6.093397396,0.147832870483398,-0.371863007545471,-0.289260029792786,0.493769195892016
6.098397396,0.157751083374023,-0.367299675941467,-0.336941599845886,0.522804072247998
6.103397396,0.150057792663574,-0.365730106830597,-0.320557475090027,0.508952794488327
6.108397396,0.180313110351563,-0.32029390335083,-0.297182083129883,0.472671337000439
6.113397396,0.153755187988281,-0.295898079872131,-0.264250993728638,0.425470233026822
6.118397396,0.168215751647949,-0.277284920215607,-0.206225514411926,0.384333746730525
6.123397396,0.191605567932129,-0.247322618961334,-0.124024748802185,0.336546148140091
6.128397396,0.182759284973145,-0.209216296672821,-0.0955729484558106,0.293779855527778
6.133397396,0.105600357055664,-0.182754695415497,-0.0592234134674072,0.219221638552006
6.138397396,0.0912637710571289,-0.13060200214386,0.00894021987915039,0.159580344663873
6.143397396,0.0537586212158203,-0.0981773138046265,0.00922644138336182,0.112311626831414
6.148397396,0.0148897171020508,-0.0701588988304138,0.00580751895904541,0.0719562508538002
6.153397396,-0.018162727355957,-0.036825954914093,-0.0213624238967896,0.0462859457620536
6.158397396,-0.0753517150878906,-0.00951898097991943,-0.038830041885376,0.0853010206175915
6.163397396,-0.0918998718261719,0.00575447082519531,-0.0871092081069946,0.126754544349197
6.168397396,-0.12391471862793,-0.00191372632980347,-0.101169466972351,0.159980564096311
6.173397396,-0.101335525512695,-0.00829213857650757,-0.143332362174988,0.175732223396189
6.178397396,-0.0558671951293945,-0.014748215675354,-0.166105151176453,0.175868060217269
6.183397396,-0.0522336959838867,-0.0289384722709656,-0.182417750358582,0.191942777460889
6.188397396,-0.0183706283569336,-0.0334461331367493,-0.190645813941956,0.194427236213501
6.193397396,0.024540901184082,-0.0353861451148987,-0.174850463867188,0.180075317052588
6.198397396,0.0386590957641602,-0.0312935709953308,-0.191279172897339,0.197639913112793
6.203397396,0.0581560134887695,-0.0608609318733215,-0.205033183097839,0.221641108787669
6.208397396,0.0674104690551758,-0.0754197835922241,-0.1860431432724,0.211764884374184
6.213397396,0.0908422470092773,-0.0899985432624817,-0.183981060981751,0.224055980574128
6.218397396,0.107913017272949,-0.100274860858917,-0.16410493850708,0.220523690019099
6.223397396,0.125616073608398,-0.124366104602814,-0.126447677612305,0.217336929895529
6.228397396,0.17365837097168,-0.149812877178192,-0.104665875434875,0.252103299180107
6.233397396,0.205445289611816,-0.173274397850037,-0.0600730180740356,0.275391632905757
6.238397396,0.212615966796875,-0.187667191028595,-0.0268574953079224,0.284861104715523
6.243397396,0.18154239654541,-0.175329506397247,-0.0121748447418213,0.252678262621542
6.248397396,0.165548324584961,-0.181762516498566,0.0128864049911499,0.246190819508719
6.253397396,0.0980691909790039,-0.176567912101746,0.00958824157714844,0.202202196278349
6.258397396,0.084559440612793,-0.178873538970947,-0.000105500221252441,0.197853615258949
6.263397396,-0.000809669494628906,-0.210611283779144,-0.0279208421707153,0.212455505570724
6.268397396,0.0170660018920898,-0.219454944133759,-0.0290435552597046,0.222025334201878
6.273397396,-0.00179386138916016,-0.201623201370239,0.0285536050796509,0.203642926792246
6.278397396,-0.000728607177734375,-0.204513192176819,0.05312180519104,0.211300976877833
6.283397396,-0.065943717956543,-0.221066832542419,0.0511007308959961,0.236284580720739
6.288397396,-0.129826545715332,-0.201230943202972,0.077619194984436,0.251741065193514
6.293397396,-0.195267677307129,-0.204982817173004,-0.0117142200469971,0.283345450093012
6.298397396,-0.248959541320801,-0.220079898834229,-0.0613960027694702,0.337913427140172
6.303397396,-0.281180381774902,-0.225662589073181,-0.048823356628418,0.363826512715548
6.308397396,-0.300463676452637,-0.247660100460053,-0.067584753036499,0.395198235155881
6.313397396,-0.329056739807129,-0.264756858348846,-0.0783572196960449,0.429551377525136
6.318397396,-0.332181930541992,-0.278546035289764,-0.0547826290130615,0.436959798146047
6.323397396,-0.314425468444824,-0.281812191009522,-0.014601469039917,0.422486318247654
6.328397396,-0.312057495117188,-0.284792125225067,0.0412602424621582,0.424486563341008
6.333397396,-0.315260887145996,-0.301883935928345,0.0737435817718506,0.442675336548368
6.338397396,-0.277480125427246,-0.300741851329803,0.0974335670471191,0.420635449214547
6.343397396,-0.252110481262207,-0.315535843372345,0.12439501285553,0.422607007086118
6.348397396,-0.218225479125977,-0.325404793024063,0.139968395233154,0.416055033291198
6.353397396,-0.176904678344727,-0.33317756652832,0.17196261882782,0.414576528920906
6.358397396,-0.136541366577148,-0.33719927072525,0.159861326217651,0.397369521458884
6.363397396,-0.103432655334473,-0.35715663433075,0.127652883529663,0.393134117457956
6.368397396,-0.108771324157715,-0.364129483699799,0.0896241664886475,0.390453547912283
6.373397396,-0.113877296447754,-0.385057657957077,0.0833081007003784,0.41009471861991
6.378397396,-0.0872163772583008,-0.405549049377441,0.0421710014343262,0.416959376048774
6.383397396,-0.0723114013671875,-0.425624758005142,-0.00347220897674561,0.431737686135691
6.388397396,-0.092036247253418,-0.448443382978439,-0.0359389781951904,0.459199029506111
6.393397396,-0.122354507446289,-0.464948415756226,-0.0566003322601318,0.484098391258022
6.398397396,-0.144277572631836,-0.472713530063629,-0.114580392837524,0.507348761595565
6.403397396,-0.18159008026123,-0.471095621585846,-0.140391111373901,0.52403788611076
6.408397396,-0.221195220947266,-0.486203461885452,-0.184884667396545,0.565246381994294
6.413397396,-0.248708724975586,-0.500483751296997,-0.189905166625977,0.590257560309511
6.418397396,-0.24990177154541,-0.494800060987473,-0.15522313117981,0.575649386543585
6.423397396,-0.22731876373291,-0.5150465965271,-0.12127423286438,0.57589431017857
6.428397396,-0.180672645568848,-0.530899047851563,-0.0544488430023193,0.563436846834526
6.433397396,-0.134977340698242,-0.54856276512146,-0.0182538032531738,0.565219595478498
6.438397396,-0.112332344055176,-0.551788508892059,0.0256175994873047,0.56368907694734
6.443397396,-0.113758087158203,-0.546440243721008,0.045002818107605,0.559967049021096
6.448397396,-0.114147186279297,-0.548796892166138,0.0605335235595703,0.563801309382329
6.453397396,-0.106167793273926,-0.531306982040405,0.0490505695343018,0.544026348502697
6.458397396,-0.135376930236816,-0.523558378219605,0.0453993082046509,0.542679818889322
6.463397396,-0.132914543151855,-0.52405446767807,0.0589907169342041,0.543855923530326
6.468397396,-0.133161544799805,-0.528764724731445,0.0111874341964722,0.545389117802778
6.473397396,-0.132720947265625,-0.525431156158447,-0.0249872207641602,0.54251000995982
6.478397396,-0.103327751159668,-0.521400809288025,-0.0604835748672485,0.534970738372337
6.483397396,-0.06939697265625,-0.529851615428925,-0.0529805421829224,0.536996845462326
6.488397396,-0.0391130447387695,-0.525861263275147,-0.0746030807495117,0.532565036534871
6.493397396,-0.015141487121582,-0.519160211086273,-0.109765648841858,0.530853169033652
6.498397396,-0.0223121643066406,-0.509896039962769,-0.142033934593201,0.529778673430505
6.503397396,-0.0240049362182617,-0.501123547554016,-0.16843593120575,0.529218017264259
6.508397396,-0.0302705764770508,-0.482093572616577,-0.199420213699341,0.522588693132906
6.513397396,-0.065861701965332,-0.472420692443848,-0.234154462814331,0.531363704905371
6.518397396,-0.0904703140258789,-0.446235924959183,-0.289364337921143,0.539484104033344
6.523397396,-0.0888576507568359,-0.429763317108154,-0.327052712440491,0.547316789021231
6.528397396,-0.065882682800293,-0.400317221879959,-0.334754109382629,0.525979771260464
6.533397396,-0.0118598937988281,-0.373694688081741,-0.311949014663696,0.486929732847647
6.538397396,0.0503463745117188,-0.346013098955154,-0.287111878395081,0.452430163440254
6.543397396,0.0991535186767578,-0.330596566200256,-0.271277189254761,0.438995242866419
6.548397396,0.146346092224121,-0.297883540391922,-0.247475028038025,0.413999603681112
6.553397396,0.172041893005371,-0.275829434394836,-0.243288397789001,0.406041296331034
6.558397396,0.193231582641602,-0.253312766551971,-0.244010448455811,0.401306492825618
6.563397396,0.211028099060059,-0.223665922880173,-0.24014139175415,0.390163032185728
6.568397396,0.199043273925781,-0.210146695375443,-0.25307297706604,0.38448119615058
6.573397396,0.165757179260254,-0.206910461187363,-0.255943059921265,0.36850268838496
6.578397396,0.128677368164063,-0.184971302747726,-0.282922625541687,0.361686964046567
6.583397396,0.0926151275634766,-0.178987473249435,-0.287356615066528,0.350981340894797
6.588397396,0.0946235656738281,-0.196925818920136,-0.271527647972107,0.348512067153291
6.593397396,0.0901622772216797,-0.202252626419067,-0.242499947547913,0.328392426355953
6.598397396,0.083247184753418,-0.214783728122711,-0.192007422447205,0.299881633166287
6.603397396,0.0860128402709961,-0.251091718673706,-0.179459929466248,0.320392144351309
6.608397396,0.145374298095703,-0.257968038320541,-0.153160095214844,0.33337547916424
6.613397396,0.174314498901367,-0.269686639308929,-0.131369233131409,0.346950001242994
6.618397396,0.213194847106934,-0.29130345582962,-0.106845617294312,0.376464782079587
6.623397396,0.245057106018066,-0.283317357301712,-0.0759142637252808,0.382210263592342
6.628397396,0.249378204345703,-0.294458657503128,-0.0831642150878906,0.394729877830925
6.633397396,0.23093318939209,-0.256232291460037,-0.100080013275146,0.359167278864345
6.638397396,0.190788269042969,-0.235166400671005,-0.107882380485535,0.321468517320427
6.643397396,0.179314613342285,-0.207986086606979,-0.0982115268707275,0.291646098534609
6.648397396,0.15644645690918,-0.177368074655533,-0.0961414575576782,0.255300034562789
6.653397396,0.129368782043457,-0.126924365758896,-0.0885064601898193,0.201691521601771
6.658397396,0.0894842147827148,-0.105208188295364,-0.065144419670105,0.152708817668878
6.663397396,0.0527744293212891,-0.0540594458580017,-0.0711053609848023,0.103747464727775
6.668397396,0.00089263916015625,-0.0318426489830017,-0.0747617483139038,0.0812654299802592
6.673397396,-0.0451192855834961,-0.0112477838993073,-0.0852468013763428,0.0971044783679323
6.678397396,-0.0637903213500977,0.0138134658336639,-0.10743236541748,0.125704932582145
6.683397396,-0.0752506256103516,0.0272732377052307,-0.12613844871521,0.149390074616606
6.688397396,-0.0801839828491211,0.0194964706897736,-0.13585090637207,0.158949841890511
6.693397396,-0.089482307434082,0.0262646079063416,-0.169096350669861,0.193107453978519
6.698397396,-0.14579963684082,0.0499485731124878,-0.212589502334595,0.262577018342732
6.703397396,-0.169780731201172,0.0621217787265778,-0.219192028045654,0.284129824619179
6.708397396,-0.172701835632324,0.058433324098587,-0.217761754989624,0.28400802687978
6.713397396,-0.176242828369141,0.058537483215332,-0.216131925582886,0.284958208776139
6.718397396,-0.19040584564209,0.0603574216365814,-0.204155325889587,0.285616528741561
6.723397396,-0.177583694458008,0.0602682828903198,-0.186234593391418,0.264294453660249
6.728397396,-0.126809120178223,0.0397293865680695,-0.128568053245544,0.18490192382125
