Time (s),Linear Acceleration x (m/s^2),Linear Acceleration y (m/s^2),Linear Acceleration z (m/s^2),Absolute acceleration (m/s^2)
0.011962822,0,0,0,0
0.016962822,-0.0765199661254883,0.028944730758667,-0.109577655792236,0.136749278986982
0.021962822,-0.0937681198120117,0.0239313840866089,-0.0528563261032105,0.110267686320651
0.026962822,-0.160776138305664,0.0294692516326904,-0.0688462257385254,0.177361794754995
0.031962822,-0.158989906311035,0.0370309352874756,-0.0651291608810425,0.175758038433881
0.036962822,-0.0878591537475586,0.0272558927536011,-0.0833336114883423,0.124123347484359
0.041962822,-0.0567865371704102,0.016074538230896,-0.0162520408630371,0.0612146258287735
0.046962822,-0.00955009460449219,0.00263512134552002,-0.00483560562133789,0.0110241214246524
0.051962822,0.0724153518676758,-0.0121800899505615,-0.00438487529754639,0.0735633394341101
0.056962822,0.162698745727539,-0.0232818126678467,-0.0253247022628784,0.166295716141813
0.061962822,0.24661922454834,-0.0270882844924927,0.00436198711395264,0.248140774571921
0.066962822,0.312967300415039,-0.0513150691986084,0.0339964628219605,0.318963206248527
0.071962822,0.35865592956543,-0.0653899908065796,0.0652991533279419,0.370369958467845
0.076962822,0.39588737487793,-0.0680382251739502,0.0671215057373047,0.407260739827696
0.081962822,0.400478363037109,-0.0656355619430542,0.0976144075393677,0.417396117389375
0.086962822,0.390686988830566,-0.0631371736526489,0.106262445449829,0.409773514580088
0.091962822,0.351955413818359,-0.0641748905181885,0.103496432304382,0.37242790092689
0.096962822,0.306561470031738,-0.0518937110900879,0.0915119647979736,0.324110061337052
0.101962822,0.242644309997559,-0.0292991399765015,0.0645120143890381,0.252777571746556
0.106962822,0.172948837280273,-0.0265265703201294,0.0570893287658691,0.184049315968533
0.111962822,0.104453086853027,-0.019349217414856,0.0645291805267334,0.12429342181767
0.116962822,0.0635232925415039,-0.00601375102996826,0.0405467748641968,0.0756003627547632
0.121962822,0.0487127304077148,-0.000185489654541016,0.0250695943832397,0.054785482317187
0.126962822,0.0357418060302734,0.0033872127532959,0.0224026441574097,0.0423181801804532
0.131962822,0.0191106796264648,0.0151815414428711,0.0235593318939209,0.0339225499580281
0.136962822,0.0409688949584961,0.00460755825042725,0.0207688808441162,0.0461630410465825
0.141962822,0.0824556350708008,-0.0231108665466309,0.00639128684997559,0.0858713715685497
0.146962822,0.136964797973633,-0.0357502698898315,0.0129485130310059,0.142144650517942
0.151962822,0.193132400512695,-0.0480043888092041,-0.00852251052856445,0.199191311704228
0.156962822,0.227263450622559,-0.0463612079620361,0.00416350364685059,0.231981405192719
0.161962822,0.279844284057617,-0.0493931770324707,0.0338953733444214,0.286184216181185
0.166962822,0.306134223937988,-0.0598149299621582,0.0103875398635864,0.312095962641156
0.171962822,0.322097778320313,-0.0591455698013306,0.00288224220275879,0.327495777905793
0.176962822,0.313879013061523,-0.0536388158798218,0.00827145576477051,0.31853661389224
0.181962822,0.295229911804199,-0.0389078855514526,-0.0039525032043457,0.29780890964439
0.186962822,0.249622344970703,-0.0448616743087769,-0.0293096303939819,0.255309497207392
0.191962822,0.181441307067871,-0.0312446355819702,-0.0543495416641235,0.19196626745928
0.196962822,0.115286827087402,-0.00983381271362305,-0.0641518831253052,0.132299737266897
0.201962822,0.0431756973266602,0.00527799129486084,-0.0636798143386841,0.0771175517373397
0.206962822,-0.0388107299804688,0.017481803894043,-0.0748776197433472,0.0861309710118023
0.211962822,-0.120610237121582,0.0271304845809937,-0.0960993766784668,0.15658219148458
0.216962822,-0.185181617736816,0.0401102304458618,-0.105754971504211,0.216991189065135
0.221962822,-0.240967750549316,0.0496114492416382,-0.119266390800476,0.273406701957405
0.226962822,-0.260035514831543,0.0540174245834351,-0.112455248832703,0.288413824430033
0.231962822,-0.267436981201172,0.0495082139968872,-0.103765487670898,0.291102866009143
0.236962822,-0.245697021484375,0.0575391054153442,-0.0895181894302368,0.267752275914061
0.241962822,-0.222624778747559,0.0418592691421509,-0.0834311246871948,0.241401621974842
0.246962822,-0.154665946960449,0.0403542518615723,-0.064389705657959,0.172325433373018
0.251962822,-0.0845489501953125,0.0306566953659058,-0.0467246770858765,0.101348672407027
0.256962822,-0.00290584564208984,0.00856220722198486,-0.025826096534729,0.0273631612506487
0.261962822,0.0816316604614258,-0.00617361068725586,-0.00274765491485596,0.0819108726979419
0.266962822,0.164097785949707,-0.0207451581954956,0.020959734916687,0.166726588851118
0.271962822,0.239316940307617,-0.0220185518264771,0.0242664813995361,0.241549739520143
0.276962822,0.287809371948242,-0.0222249031066895,0.0337564945220947,0.290633242802271
0.281962822,0.324885368347168,-0.0336896181106567,0.0558403730392456,0.331366323267285
0.286962822,0.322336196899414,-0.0266166925430298,0.076820969581604,0.33243124630661
0.291962822,0.323063850402832,-0.0191061496734619,0.0665062665939331,0.330391252742429
0.296962822,0.304306030273438,-0.0198850631713867,0.0597168207168579,0.310746962132597
0.301962822,0.255461692810059,-0.0211255550384522,0.0748432874679565,0.26703648299076
0.306962822,0.208054542541504,-0.0125018358230591,0.0589218139648438,0.216598173427222
0.311962822,0.140202522277832,-0.00437736511230469,0.0518639087677002,0.149551909419628
0.316962822,0.0769538879394531,0.0090247392654419,0.0440666675567627,0.0891359522155082
0.321962822,0.0234966278076172,0.00966250896453857,0.034151554107666,0.0425650589778555
0.326962822,-0.024566650390625,0.0081019401550293,0.0236190557479858,0.035028867239997
0.331962822,-0.0750656127929688,0.030407190322876,0.0146759748458862,0.0823093414199907
0.336962822,-0.0988216400146484,0.0243421792984009,0.00694155693054199,0.102011976947809
0.341962822,-0.115724563598633,0.0202481746673584,0.00657713413238525,0.117666570829821
0.346962822,-0.0996894836425781,0.0254431962966919,0.0131906270980835,0.103727248252118
0.351962822,-0.0963048934936523,0.0310310125350952,0.0217303037643433,0.103487981676461
0.356962822,-0.0752677917480469,0.0362122058868408,0.0354611873626709,0.0907417221513277
0.361962822,-0.0324411392211914,0.0147475004196167,0.0401116609573364,0.0536550242507785
0.366962822,-0.00506687164306641,0.0210672616958618,0.0735234022140503,0.0766498100241498
0.371962822,0.022395133972168,0.0175272226333618,0.0808978080749512,0.085750807052776
0.376962822,0.0488595962524414,0.0145611763000488,0.111291646957397,0.122413719344209
0.381962822,0.0597419738769531,0.0297857522964478,0.143115997314453,0.157919229892659
0.386962822,0.0705289840698242,0.0140111446380615,0.191755771636963,0.204794838128497
0.391962822,0.0610666275024414,0.0202620029449463,0.222724318504334,0.231831412477004
0.396962822,0.0333852767944336,0.0235956907272339,0.274637460708618,0.277663588091802
0.401962822,0.0228300094604492,0.0412082672119141,0.328992366790772,0.332348172892776
0.406962822,-0.0410747528076172,0.0713475942611694,0.481091976165772,0.488085140171416
0.411962822,-0.0993480682373047,0.101101279258728,0.819645404815674,0.831811334958646
0.416962822,-0.13129711151123,0.111182689666748,1.02640986442566,1.0407294229352
0.421962822,-0.0894298553466797,0.0834535360336304,1.02403020858765,1.03130987574245
0.426962822,-0.0537996292114258,0.0153099298477173,0.859491109848023,0.861309330010429
0.431962822,-0.0118064880371094,-0.0520262718200684,0.578579425811768,0.581033801161293
0.436962822,0.00860595703125,-0.0558958053588867,0.297340512275696,0.302671081858699
0.441962822,0.0156459808349609,-0.0431230068206787,0.178980231285095,0.184765563957168
0.446962822,-0.00206947326660156,-0.0453104972839356,0.103217959403992,0.11274427270262
0.451962822,0.0237922668457031,-0.045951247215271,0.0734126567840576,0.0898165199637012
0.456962822,0.0195732116699219,-0.0458889007568359,0.0431897640228272,0.0659867982561194
0.461962822,0.0203580856323242,-0.0396915674209595,0.026134729385376,0.0517000604931218
0.466962822,0.0224676132202148,-0.0365484952926636,0.00138843059539795,0.0429245138759807
0.471962822,0.0150747299194336,-0.0327743291854858,0.00120484828948975,0.0360950937816089
0.476962822,0.0288257598876953,-0.0386209487915039,-0.02550208568573,0.0545239258764567
0.481962822,0.0411462783813477,-0.0466303825378418,-0.0365842580795288,0.072151346068458
0.486962822,0.0591192245483398,-0.0328769683837891,-0.0414208173751831,0.0793199966801182
0.491962822,0.0517330169677734,-0.0321288108825684,-0.0323293209075928,0.0689474475500137
0.496962822,0.0380830764770508,-0.0141631364822388,-0.0399860143661499,0.0570069863601065
0.501962822,0.0342578887939453,0.012214183807373,-0.0483849048614502,0.0605300607066456
0.506962822,0.0286226272583008,0.00758552551269531,-0.0382481813430786,0.0483706353537392
0.511962822,0.0199823379516602,0.00778722763061523,-0.0524857044219971,0.0566981826239485
0.516962822,0.0297231674194336,0.0134017467498779,-0.0477755069732666,0.0578409246463452
0.521962822,0.0221042633056641,0.0232181549072266,-0.0473285913467407,0.0571635962169008
0.526962822,0.00921535491943359,0.0247510671615601,-0.0563777685165405,0.0622574563793913
0.531962822,0.00922203063964844,0.0324288606643677,-0.0523749589920044,0.0622881464046068
0.536962822,0.0183563232421875,0.044243335723877,-0.0408741235733032,0.0629692094347152
0.541962822,0.00554275512695313,0.0394370555877686,-0.0433034896850586,0.0588319276136189
0.546962822,0.0165185928344727,0.0391908884048462,-0.0355640649795532,0.0554399888263164
0.551962822,0.0205345153808594,0.0298594236373901,-0.0421837568283081,0.0556122364415756
0.556962822,0.0239419937133789,0.0167962312698364,-0.0457073450088501,0.054263190429603
0.561962822,0.0346965789794922,0.0267654657363892,-0.0675958395004273,0.0805570621778965
0.566962822,0.0359649658203125,0.024457573890686,-0.0287963151931763,0.052162049957602
0.571962822,0.0465793609619141,0.0140372514724731,-0.0378459692001343,0.0616360177268068
0.576962822,0.0588140487670898,0.0100101232528687,-0.0267328023910522,0.0653753594528879
0.581962822,0.0583219528198242,0.0147451162338257,-0.0289944410324097,0.0667798341136657
0.586962822,0.0580320358276367,0.00982201099395752,-0.0128587484359741,0.060245634643559
0.591962822,0.0543899536132813,0.00913059711456299,-0.0179675817489624,0.0580040416835672
0.596962822,0.0622339248657227,0.000327944755554199,-0.0153046846389771,0.0640890187462224
0.601962822,0.0650081634521484,0.00294101238250732,0.00144243240356445,0.065090640498417
0.606962822,0.0554599761962891,0.0128655433654785,-0.00929701328277588,0.057686788970804
0.611962822,0.0400152206420898,0.00219094753265381,0.00859534740447998,0.0409865603720253
0.616962822,0.022374153137207,-0.00790572166442871,0.0208081007003784,0.0315607385591608
0.621962822,0.0199174880981445,0.00710546970367432,0.0274726152420044,0.034668986430018
0.626962822,0.00603103637695313,0.00455927848815918,0.0425513982772827,0.0432178425591174
0.631962822,0.00113391876220703,-0.00756418704986572,0.0548310279846191,0.0553619393386352
0.636962822,0.00162887573242188,-0.0134832859039307,0.0679552555084229,0.0692991268785823
0.641962822,0.00827884674072266,-0.0121407508850098,0.0787039995193481,0.0800640785605492
0.646962822,0.00210762023925781,-0.0184911489486694,0.0921449661254883,0.0940056351224872
0.651962822,-0.00837993621826172,-0.0183378458023071,0.112021088600159,0.113821018317602
0.656962822,-0.000391960144042969,-0.0179483890533447,0.11591362953186,0.117295642773353
0.661962822,-0.0156946182250977,-0.013391375541687,0.140360236167908,0.141868410427554
0.666962822,-0.00594329833984375,-0.0152323246002197,0.152815937995911,0.153688182413134
0.671962822,-0.0081024169921875,-0.0234581232070923,0.138071775436401,0.140284524726266
0.676962822,0.00551128387451172,-0.0170414447784424,0.140361428260803,0.141499525205899
0.681962822,-0.00110912322998047,-0.0133271217346191,0.153855204582214,0.154435314307006
0.686962822,0.00668716430664063,-0.0280183553695679,0.141674876213074,0.144573569348167
0.691962822,0.00213909149169922,-0.0276767015457153,0.11618971824646,0.11945972604628
0.696962822,0.00192546844482422,-0.0114121437072754,0.126197814941406,0.126727396204266
0.701962822,0.00721836090087891,-0.0143734216690063,0.112807750701904,0.11394862264632
0.706962822,-0.0000448226928710938,-0.0220389366149902,0.0974204540252686,0.0998822386547419
0.711962822,-0.00826835632324219,-0.0231896638870239,0.0854955911636353,0.0889697832744393
0.716962822,0.0001068115234375,-0.00838994979858398,0.0851587057113648,0.0855710688536676
0.721962822,-0.00201225280761719,-0.00793099403381348,0.0728954076766968,0.0733531886701456
0.726962822,0.000398635864257813,-0.0204334259033203,0.0713642835617065,0.0742330436731137
0.731962822,-0.00817489624023438,-0.0171047449111938,0.058794379234314,0.0617752398341272
0.736962822,-0.00658512115478516,-0.0206009149551392,0.0438773632049561,0.0489181410054768
0.741962822,0.00776386260986328,-0.0133767127990723,0.020930290222168,0.0260248161706836
0.746962822,0.00935268402099609,-0.0209643840789795,0.0242106914520264,0.0333636880274467
0.751962822,0.0229969024658203,-0.0108426809310913,0.0168091058731079,0.0304789647634111
0.756962822,0.029667854309082,-0.0136785507202148,0.0253956317901611,0.0413790096924981
0.761962822,0.027705192565918,-0.0240449905395508,0.0199573040008545,0.0417616241080757
0.766962822,0.0348482131958008,-0.0254417657852173,0.00259590148925781,0.0432252254332093
0.771962822,0.0264244079589844,-0.00200629234313965,-0.00190186500549316,0.0265686212560625
0.776962822,0.0437583923339844,-0.0147285461425781,-0.000995993614196777,0.0461813704258381
0.781962822,0.0369539260864258,-0.00901734828948975,0.00966060161590576,0.0392457952774081
0.786962822,0.0356283187866211,0.00118887424468994,0.00764131546020508,0.0364579240151322
0.791962822,0.0338239669799805,0.0116425752639771,-0.000822782516479492,0.035781102164545
0.796962822,0.0199432373046875,0.00536656379699707,0.0207308530807495,0.0292626210485995
0.801962822,0.00734806060791016,-0.00582826137542725,-0.0137685537338257,0.0166594026687353
0.806962822,0.00206279754638672,-0.00911891460418701,0.0159130096435547,0.0184562621673972
0.811962822,0.0000209808349609375,-0.00270891189575195,0.00291025638580322,0.00397595725398181
0.816962822,-0.00124263763427734,-0.00347685813903809,-0.00257337093353272,0.00450054760786605
0.821962822,0.0166893005371094,-0.00433564186096191,-0.00145995616912842,0.0173049708113091
0.826962822,-0.0003814697265625,-0.00591087341308594,-0.0101542472839355,0.0117555383356579
0.831962822,0.00411415100097656,-0.00109457969665527,0.0116479396820068,0.0124015661110537
0.836962822,0.00967693328857422,0.00265336036682129,-0.00405788421630859,0.0108235753529368
0.841962822,0.0134162902832031,-0.00128769874572754,0.00841152667999268,0.0158873784530723
0.846962822,-0.00178432464599609,0.00613737106323242,-0.00671422481536865,0.0092699489147149
0.851962822,0.00419521331787109,0.0128326416015625,-0.0205222368240356,0.0245649895078016
0.856962822,-0.0121498107910156,0.000300765037536621,-0.0166704654693604,0.0206303848929297
0.861962822,0.00260162353515625,-0.00109624862670898,-0.00836515426635742,0.00882870386694435
0.866962822,0.0000848770141601563,0.0161498785018921,-0.014835000038147,0.0219295008120392
0.871962822,-0.00449752807617188,0.0121378898620605,-0.0180644989013672,0.0222234616938263
0.876962822,0.00342559814453125,0.0119452476501465,-0.0222107172012329,0.0254507293149782
0.881962822,0.00490951538085938,0.00493204593658447,-0.0131021738052368,0.0148356117776824
0.886962822,0.0126371383666992,-0.00632047653198242,-0.0270237922668457,0.0304947706692815
0.891962822,0.0319852828979492,-0.00162112712860107,-0.0264506340026855,0.0415370005461751
0.896962822,0.0300722122192383,0.0129657983779907,-0.0392426252365112,0.0511119703278095
0.901962822,0.0331735610961914,0.00551426410675049,-0.0318095684051514,0.0462897494761394
0.906962822,0.0466146469116211,0.00312435626983643,-0.0232000350952148,0.0521625204262138
0.911962822,0.0444402694702148,-0.0030747652053833,-0.016520619392395,0.0475112891507053
0.916962822,0.0468769073486328,-0.00304877758026123,-0.0275324583053589,0.0544497543395977
0.921962822,0.0599031448364258,-0.00297272205352783,-0.0314916372299194,0.0677417674195336
0.926962822,0.0461950302124023,-0.00175154209136963,-0.0183632373809814,0.0497419059057137
0.931962822,0.041844367980957,0.00186121463775635,-0.0114575624465942,0.0434245436230612
0.936962822,0.0360603332519531,0.00747990608215332,-0.00346875190734863,0.0369909295508302
0.941962822,0.0215053558349609,0.00772905349731445,-0.0163161754608154,0.0280791057411156
0.946962822,0.0213756561279297,0.00659167766571045,-0.00247538089752197,0.0225054748880343
0.951962822,0.0118141174316406,0.00468432903289795,0.0023188591003418,0.0129187234936074
0.956962822,0.00642967224121094,-0.0111256837844849,0.00304651260375977,0.0132061638580859
0.961962822,0.00527095794677734,-0.00334882736206055,0.0143415927886963,0.0156422161503531
0.966962822,-0.000528335571289063,-0.000854849815368652,0.0319530963897705,0.0319688954387963
0.971962822,-0.00954532623291016,0.00477468967437744,0.0301347970962524,0.0319689992087897
0.976962822,-0.0148143768310547,0.0114142894744873,0.0535359382629395,0.0567084513171815
0.981962822,-0.0206584930419922,0.00684309005737305,0.0587650537490845,0.0626652436238155
0.986962822,-0.0245933532714844,0.00406217575073242,0.0618072748184204,0.0666443809892898
0.991962822,-0.00987434387207031,-0.000432491302490234,0.072049617767334,0.0727243916169091
0.996962822,-0.0166730880737305,-0.000818371772766113,0.0783952474594116,0.0801528316561257
1.001962822,-0.0160045623779297,0.00509321689605713,0.074846625328064,0.0767079148345131
1.006962822,-0.0141086578369141,-0.0160844326019287,0.0843358039855957,0.0870074194076685
1.011962822,0.000072479248046875,-0.0159423351287842,0.0979995727539063,0.0992878621108745
1.016962822,-0.00457954406738281,-0.0117311477661133,0.090478777885437,0.0913509786451012
1.021962822,-0.00769519805908203,-0.01624596118927,0.0844111442565918,0.0863040474302273
1.026962822,0.0118961334228516,-0.0179276466369629,0.0748430490493774,0.0778742608013817
1.031962822,0.0259799957275391,-0.0122448205947876,0.0858043432235718,0.0904835958913548
1.036962822,0.0225067138671875,-0.0254747867584229,0.0938308238983154,0.0997984992017578
1.041962822,0.00545597076416016,-0.0150948762893677,0.0823779106140137,0.083927010338157
1.046962822,0.0156021118164063,-0.0125739574432373,0.0929855108261108,0.0951201110307845
1.051962822,0.0146112442016602,-0.0156136751174927,0.0873013734817505,0.0898821735362204
1.056962822,0.0104255676269531,-0.0154409408569336,0.0780191421508789,0.0802128521924669
1.061962822,0.015289306640625,-0.0152850151062012,0.0941275358200073,0.0965784012287148
1.066962822,0.0166530609130859,-0.0105667114257813,0.0775294303894043,0.0799987025184545
1.071962822,0.00934791564941406,-0.018081545829773,0.0779522657394409,0.0805660074752073
1.076962822,0.00122261047363281,-0.00851333141326904,0.0711053609848023,0.0716236270297828
1.081962822,0.0150480270385742,-0.0153262615203857,0.0836408138275147,0.0863546359362014
1.086962822,0.0120573043823242,-0.0109809637069702,0.0866144895553589,0.0881364280750995
1.091962822,0.00792884826660156,-0.0133419036865234,0.0769777297973633,0.0785267082817759
1.096962822,-0.00131988525390625,-0.000803589820861816,0.0635844469070435,0.0636032211618115
1.101962822,-0.0000171661376953125,-0.0154961347579956,0.0635193586349487,0.065382256067755
1.106962822,0.00226974487304688,-0.0119897127151489,0.0533559322357178,0.0547335405169722
1.111962822,-0.00561618804931641,-0.00784182548522949,0.0457777976989746,0.0467829301916236
1.116962822,-0.00962448120117188,-0.00744402408599854,0.0427783727645874,0.0444750863896927
1.121962822,-0.00934982299804688,-0.00482547283172607,0.0254263877868652,0.0275173685884494
1.126962822,-0.018061637878418,-0.0269482135772705,0.0314029455184937,0.0451505699310072
1.131962822,-0.00885009765625,0.00003814697265625,0.0270265340805054,0.0284386924474632
1.136962822,-0.00872516632080078,-0.00387656688690186,0.0171691179275513,0.0196452261011275
1.141962822,-0.00595760345458984,-0.00161957740783691,0.0116163492202759,0.0131550613495157
1.146962822,0.00311088562011719,0.00796604156494141,-0.00498044490814209,0.00989647710242713
1.151962822,-0.00745391845703125,0.00470459461212158,-0.00390863418579102,0.00964217465237011
1.156962822,-0.00806808471679688,0.0132300853729248,0.00634837150573731,0.0167460732933768
1.161962822,0.00178050994873047,0.00867640972137451,-0.00190365314483643,0.00905948103516619
1.166962822,0.00319099426269531,0.0045924186706543,-0.0171606540679932,0.0180488448847138
1.171962822,-0.00253486633300781,0.0130082368850708,-0.013210654258728,0.01871259362376
1.176962822,0.0134201049804688,0.0154160261154175,-0.0334796905517578,0.0392255370685922
1.181962822,0.00564861297607422,0.0041801929473877,-0.0315215587615967,0.0322953480921271
1.186962822,0.0106916427612305,-0.00595176219940186,-0.0251891613006592,0.0280040808676633
1.191962822,0.0246343612670898,-0.00329482555389404,-0.0244995355606079,0.0348989236675514
1.196962822,0.0257778167724609,0.00158524513244629,-0.0324763059616089,0.0414936053940429
1.201962822,0.0287237167358398,-0.00396966934204102,-0.0487425327301025,0.0567154712115753
1.206962822,0.0211181640625,0.00534677505493164,-0.0338913202285767,0.0402887880643565
1.211962822,0.0179328918457031,-0.00059044361114502,-0.033642053604126,0.0381277458592888
1.216962822,0.0215225219726563,-0.00993049144744873,-0.0256483554840088,0.0349237992132215
1.221962822,0.0145740509033203,-0.00702738761901856,-0.0294294357299805,0.033583907215593
1.226962822,0.0158281326293945,-0.00375187397003174,-0.022850513458252,0.0280491052642764
1.231962822,0.0133686065673828,0.00692522525787354,-0.0251164436340332,0.0292833421461302
1.236962822,0.0211219787597656,0.00866389274597168,-0.0262202024459839,0.0347663636371432
1.241962822,0.00921154022216797,-0.0144202709197998,-0.0127568244934082,0.0213432251035466
1.246962822,0.000157356262207031,0.00813078880310059,-0.0178229808807373,0.0195906389642862
1.251962822,0.00145912170410156,0.00701355934143066,-0.0164570808410645,0.0179486645907845
1.256962822,0.00199794769287109,0.0112367868423462,-0.0161956548690796,0.0198130363690706
1.261962822,-0.00290679931640625,0.0118632316589355,-0.00598561763763428,0.0136019618497991
1.266962822,-0.00934123992919922,0.00952839851379395,-0.00731408596038818,0.0152166026132144
1.271962822,-0.00446796417236328,0.00865328311920166,0.000865340232849121,0.00977705611649896
1.276962822,-0.00832653045654297,0.0141370296478271,0.00541567802429199,0.0172776238288163
1.281962822,-0.00111579895019531,0.0148414373397827,-0.000939726829528809,0.0149129593348232
1.286962822,0.000382423400878906,0.0108280181884766,-0.0108820199966431,0.0153561253171123
1.291962822,-0.00439834594726563,0.00670289993286133,-0.00468516349792481,0.00928574561271562
1.296962822,-0.00446414947509766,0.00353765487670898,-0.00244104862213135,0.00619696304154921
1.301962822,0.0144996643066406,-0.0105726718902588,0.00775182247161865,0.0195476957091067
1.306962822,0.0171365737915039,-0.00208508968353272,-0.00361764430999756,0.0176379451936355
1.311962822,0.00911712646484375,-0.0110312700271606,0.00511491298675537,0.015197804060132
1.316962822,0.00888919830322266,-0.0126520395278931,-0.00142323970794678,0.0155279606502484
1.321962822,0.00536537170410156,-0.0058363676071167,0.0159242153167725,0.0177885084766403
1.326962822,0.0078582763671875,-0.00171887874603271,0.0226296186447144,0.0240168001951106
1.331962822,0.0128717422485352,-0.00146794319152832,0.0125874280929565,0.0180632209675249
1.336962822,0.00710201263427734,-0.012593150138855,0.00143373012542725,0.0145286474232716
1.341962822,-0.00396442413330078,-0.0200080871582031,0.00771737098693848,0.0218082100455079
1.346962822,-0.0132122039794922,-0.0172133445739746,0.0103391408920288,0.0240366262150767
1.351962822,-0.0109920501708984,-0.0148402452468872,0.0114971399307251,0.0217541323093793
1.356962822,0.00174236297607422,0.00222480297088623,0.0143884420394897,0.014663316177571
1.361962822,0.00304508209228516,-0.00960731506347656,0.0106254816055298,0.0146449270065477
1.366962822,-0.000347137451171875,-0.00175738334655762,0.0226774215698242,0.0227480625481005
1.371962822,0.00334358215332031,0.00173640251159668,0.0314755439758301,0.0317002287668827
1.376962822,0.0141592025756836,-0.00150382518768311,0.0281833410263062,0.0315760228524656
1.381962822,0.0187435150146484,-0.00580906867980957,0.0348604917526245,0.0400039812926901
1.386962822,0.00873470306396484,-0.005104660987854,0.0542598962783814,0.0551950083391357
1.391962822,0.0121660232543945,0.00413346290588379,0.0512220859527588,0.0528090875396706
1.396962822,0.00530338287353516,-0.00347769260406494,0.0481582880020142,0.048574076615378
1.401962822,0.00208091735839844,0.00207698345184326,0.0286773443222046,0.0288276630111772
1.406962822,0.0103015899658203,-0.00643420219421387,0.0259963274002075,0.0286937406414482
1.411962822,0.0120668411254883,-0.00696825981140137,0.0224872827529907,0.0264545494227348
1.416962822,-0.0190715789794922,0.00415623188018799,0.0230237245559692,0.030184288638993
1.421962822,-0.00662612915039063,-0.00380265712738037,0.0170696973800659,0.0187013464058902
1.426962822,-0.00503730773925781,0.00211095809936523,0.0409344434738159,0.0412972066351744
1.431962822,-0.0141868591308594,-0.00912046432495117,0.0242862701416016,0.0295681037419109
1.436962822,-0.01690673828125,-0.0173549652099609,0.00908470153808594,0.0258759428579084
1.441962822,-0.00580310821533203,-0.00796902179718018,0.00456702709197998,0.0108645805175196
1.446962822,0.0152454376220703,-0.0138850212097168,0.0182286500930786,0.0275227336305574
1.451962822,-0.00256156921386719,0.00946426391601563,0.0134824514389038,0.016670645611728
1.456962822,0.0042266845703125,0.00656282901763916,0.00757908821105957,0.0108801730355131
1.461962822,0.015141487121582,0.00418698787689209,0.0198277235031128,0.0252969191612372
1.466962822,0.010951042175293,0.000205874443054199,0.0180813074111938,0.0211400422589323
1.471962822,0.00932502746582031,0.00261688232421875,0.00736963748931885,0.0121702821274236
1.476962822,0.00545215606689453,-0.000183582305908203,0.00521373748779297,0.00754604312420988
1.481962822,0.0194387435913086,0.0146347284317017,0.0104968547821045,0.026499509221774
1.486962822,0.0162229537963867,0.0141017436981201,0.00642824172973633,0.0224358128210924
1.491962822,0.00722694396972656,-0.000397682189941406,0.00613534450531006,0.00948837828422761
1.496962822,0.0140171051025391,0.00400304794311523,0.00977504253387451,0.0175514980793538
1.501962822,0.0109796524047852,0.00887322425842285,0.00646102428436279,0.015525195988241
1.506962822,0.00452423095703125,-0.00532495975494385,0.0110397338867188,0.0130652051814695
1.511962822,-0.00421428680419922,-0.0100995302200317,0.00283753871917725,0.0113054124169007
1.516962822,0.00141620635986328,-0.00682783126831055,0.00885915756225586,0.0112742890239301
1.521962822,0.00460338592529297,-0.00288975238800049,0.0124887228012085,0.0136202066080719
1.526962822,0.00783538818359375,-0.0116090774536133,0.0158040523529053,0.0211171034492177
1.531962822,0.005340576171875,0.00145459175109863,0.0137776136398315,0.0148479031724495
1.536962822,-0.0001220703125,-0.00974786281585693,0.0177404880523682,0.0202425454667682
1.541962822,0.00260639190673828,0.000560522079467773,0.00312578678131104,0.00410828513802298
1.546962822,0.0108413696289063,0.00105035305023193,0.00437438488006592,0.0117377076143364
1.551962822,-0.000307083129882813,-0.0050957202911377,0.0195218324661255,0.0201782706932394
1.556962822,-0.00474452972412109,-0.00173103809356689,0.0368880033493042,0.0372321345920795
1.561962822,-0.00879478454589844,-0.00856113433837891,0.00625598430633545,0.0137760152442446
1.566962822,0.0049285888671875,0.00957334041595459,0.0249670743942261,0.0271899731288638
1.571962822,0.00295257568359375,0.0176483392715454,0.0277011394500732,0.0329777911486401
1.576962822,-0.00635337829589844,0.0101641416549683,0.0119137763977051,0.0169000964319015
1.581962822,-0.00140953063964844,0.00421690940856934,0.0182449817657471,0.0187789366370045
1.586962822,-0.00177955627441406,-0.00266242027282715,0.0102758407592773,0.0107632804271278
1.591962822,0.0124635696411133,0.00310027599334717,0.0128965377807617,0.0182009056413251
1.596962822,0.00528335571289063,-0.000365614891052246,0.027320384979248,0.0278289589681651
1.601962822,0.00864696502685547,0.000798940658569336,0.0235600471496582,0.0251094430851362
1.606962822,0.00685310363769531,-0.00642919540405273,0.02156662940979,0.0235248610434091
1.611962822,0.00968837738037109,0.00198757648468018,0.0325778722763062,0.0340460405715299
1.616962822,-0.000885009765625,-0.00657927989959717,0.0333986282348633,0.034051997507534
1.621962822,0.00844955444335938,-0.00163173675537109,-0.00503170490264893,0.00996873057903886
1.626962822,0.0129451751708984,-0.00950050354003906,0.00925815105438232,0.0185351150162415
1.631962822,-0.00333786010742188,-0.00187039375305176,0.00543570518493652,0.00664729822903405
1.636962822,-0.00365734100341797,-0.00739967823028564,0.0122931003570557,0.0148071502158818
1.641962822,-0.00901412963867188,-0.0156683921813965,0.0197949409484863,0.0268065800475721
1.646962822,-0.0124454498291016,-0.00498425960540772,0.00634264945983887,0.0148310912421567
1.651962822,-0.0133790969848633,-0.000441670417785645,0.0232043266296387,0.0267887305265345
1.656962822,-0.00317192077636719,-0.00797462463378906,0.0223878622055054,0.023976490435301
1.661962822,-0.00006103515625,0.00139498710632324,0.0138170719146729,0.0138874472316674
1.666962822,-0.00550651550292969,-0.0129897594451904,0.0184503793716431,0.0232265378906429
1.671962822,-0.00801944732666016,0.00665819644927979,0.00126898288726807,0.0105001634725588
1.676962822,-0.00787639617919922,-0.00461745262145996,0.00822150707244873,0.0122862388071149
1.681962822,-0.00321388244628906,-0.00520169734954834,0.0243219137191772,0.0250787197172815
1.686962822,0.0006561279296875,0.00039517879486084,0.00371837615966797,0.00379644457417869
1.691962822,-0.000665664672851563,0.00733351707458496,0.00351464748382568,0.00815943190886927
1.696962822,0.00950813293457031,0.00957238674163818,0.013742208480835,0.0192583351763252
1.701962822,0.00781726837158203,0.00740981101989746,-0.00025022029876709,0.0107739312389604
1.706962822,-0.000227928161621094,-0.00238263607025147,-0.00268673896789551,0.00359825960315977
1.711962822,-0.00302028656005859,-0.00973105430603027,-0.0182750225067139,0.0209234795488867
1.716962822,0.00240707397460938,-0.005057692527771,0.00609493255615234,0.0082778295276454
1.721962822,0.0093994140625,-0.00805044174194336,0.00431191921234131,0.0131053898931892
1.726962822,0.0157814025878906,-0.00989222526550293,0.000746726989746094,0.0186404503578039
1.731962822,0.0125017166137695,-0.00183534622192383,-0.00482380390167236,0.013525180151374
1.736962822,0.0107278823852539,-0.000200033187866211,-0.0127362012863159,0.0166534770229416
1.741962822,0.00588130950927734,0.00450539588928223,-0.0219098329544067,0.0231285359189268
1.746962822,0.008941650390625,-0.0153325796127319,-0.0120654106140137,0.0214619487133317
1.751962822,-0.00226688385009766,-0.00799727439880371,-0.0102055072784424,0.013162353095474
1.756962822,-0.00134563446044922,0.00687611103057861,-0.0068962574005127,0.00983107324457098
1.761962822,0.00889205932617188,0.00299310684204102,-0.0100072622299194,0.0137176056571985
1.766962822,0.0143699645996094,-0.00756800174713135,-0.0074392557144165,0.0178637358529253
1.771962822,0.000489234924316406,0.0044245719909668,-0.00645959377288818,0.00784490534201367
1.776962822,-0.00903892517089844,-0.0011366605758667,0.0057598352432251,0.0107782126319223
1.781962822,0.00693225860595703,0.00184142589569092,-0.00717401504516602,0.0101446316136888
1.786962822,0.000789642333984375,0.0115113258361816,-0.00629675388336182,0.0131447049031158
1.791962822,0.00410556793212891,0.00586438179016113,-0.00065004825592041,0.00718813081135311
1.796962822,0.00138664245605469,0.00439524650573731,-0.0103532075881958,0.0113326906121805
1.801962822,0.000557899475097656,-0.000375986099243164,0.00261712074279785,0.00270220990182501
1.806962822,-0.00303459167480469,-0.0013730525970459,-0.00481534004211426,0.00585504225332639
1.811962822,0.000712394714355469,-0.00691640377044678,-0.0176247358322144,0.0189466477377987
1.816962822,0.000672340393066406,-0.0072166919708252,-0.012391209602356,0.0143553042467041
1.821962822,-0.00621700286865234,-0.00504195690155029,0.00128626823425293,0.00810721530714278
1.826962822,-0.000431060791015625,0.00342202186584473,0.00426876544952393,0.00548802382638046
1.831962822,0.00474357604980469,0.00388896465301514,-0.000441193580627441,0.00614981394745147
1.836962822,-0.00209522247314453,-0.00617825984954834,-0.00228440761566162,0.00691226230224257
1.841962822,0.00896263122558594,-0.00789380073547363,0.00356936454772949,0.0124652000309582
1.846962822,0.00095367431640625,-0.0104219913482666,-0.00152242183685303,0.0105756875244328
1.851962822,0.00124454498291016,-0.0144213438034058,0.000445842742919922,0.0144818101445203
1.856962822,0.000522613525390625,-0.00565481185913086,0.0194531679153442,0.0202651366637797
1.861962822,-0.00471973419189453,0.00830388069152832,-0.00148451328277588,0.00966613185653978
1.866962822,-0.00236129760742188,-0.0048445463180542,0.0125154256820679,0.0136264902092194
1.871962822,0.00469684600830078,0.00319898128509522,0.0170137882232666,0.0179377488385317
1.876962822,0.00460910797119141,0.000119209289550781,0.0119600296020508,0.0128179715722397
1.881962822,0.000905036926269531,-0.00957262516021729,0.0143349170684814,0.0172610570839731
1.886962822,0.00415325164794922,-0.00507974624633789,0.0178037881851196,0.0189744089478166
1.891962822,0.00391483306884766,-0.00376200675964355,0.00492560863494873,0.00733077303162691
1.896962822,0.00219058990478516,0.000867128372192383,0.0135620832443237,0.0137651987879135
1.901962822,0.000635147094726563,-0.00737071037292481,0.0156823396682739,0.0173397393493847
1.906962822,-0.00120735168457031,-0.00176477432250977,0.0066065788269043,0.006943990948707
1.911962822,0.00429439544677734,0.00015723705291748,0.0216857194900513,0.0221073966252316
1.916962822,-0.00933074951171875,0.0092310905456543,0.0322233438491821,0.0347939622339154
1.921962822,0.00134658813476563,0.00896632671356201,0.01322340965271,0.0160333052482141
1.926962822,0.0109958648681641,0.00194621086120605,0.0145841836929321,0.0183683204159876
1.931962822,0.00419998168945313,-0.00254702568054199,0.0134756565093994,0.0143429600978459
1.936962822,0.00414657592773438,-0.0000224113464355469,0.0143911838531494,0.0149766740930042
1.941962822,-0.00737285614013672,-0.00765621662139893,0.0102256536483765,0.0147492594103396
1.946962822,-0.0100879669189453,-0.00017857551574707,0.0268492698669434,0.0286824381488135
1.951962822,-0.00864505767822266,-0.00474679470062256,0.0136501789093018,0.0168403226348429
1.956962822,0.00101470947265625,-0.0032341480255127,0.0176863670349121,0.0180082461016739
1.961962822,-0.000380516052246094,-0.00456881523132324,0.0176718235015869,0.0182568401141936
1.966962822,-0.0052642822265625,-0.0125182867050171,0.00825619697570801,0.0158929216285616
1.971962822,-0.00524711608886719,-0.00227046012878418,0.0191757678985596,0.0200099298086194
1.976962822,-0.000499725341796875,0.00017094612121582,0.00350582599639893,0.00354538628510622
1.981962822,0.00266075134277344,0.000177741050720215,0.0106629133224487,0.0109913106639398
1.986962822,-0.00528240203857422,0.00181496143341064,0.00528514385223389,0.00768964250408995
1.991962822,0.00439453125,-0.00221478939056397,0.0179328918457031,0.0185958545622799
1.996962822,0.0104761123657227,0.00041651725769043,0.0242464542388916,0.026416149607463
2.001962822,0.000789642333984375,0.000934481620788574,0.0151159763336182,0.0151654057457661
2.006962822,0.0178642272949219,0.000333547592163086,0.0266553163528442,0.0320896830883553
2.011962822,-0.00379467010498047,0.00691521167755127,-0.0015188455581665,0.00803284293264446
2.016962822,0.00393486022949219,-0.00303816795349121,0.00697088241577148,0.00856193851845319
2.021962822,0.00390625,-0.00503921508789063,0.00949192047119141,0.0114345542980891
2.026962822,-0.00938892364501953,-0.00287604331970215,0.0146857500076294,0.0176662040539386
2.031962822,0.00563812255859375,0.00820815563201904,0.00910449028015137,0.0134927383479611
2.036962822,0.00377845764160156,-0.00490462779998779,0.00237870216369629,0.00663252139004193
2.041962822,0.000226020812988281,-0.00490224361419678,0.00360679626464844,0.00609032488095002
2.046962822,-0.00139617919921875,-0.00850927829742432,-0.00621676445007324,0.0106303948057935
2.051962822,0.000291824340820313,-0.0116918087005615,0.004294753074646,0.0124590712378011
2.056962822,0.00203895568847656,-0.00259113311767578,0.0102993249893188,0.0108142224116529
2.061962822,0.00365924835205078,-0.00412726402282715,-0.0113049745559692,0.0125788257213152
2.066962822,0.00420475006103516,0.00490295886993408,0.00364899635314941,0.0074184973641121
2.071962822,0.00312900543212891,0.00379550457000732,-0.0123682022094727,0.0133104829299933
2.076962822,0.00333213806152344,-0.00175273418426514,0.000359416007995605,0.00378211594858596
2.081962822,0.00360870361328125,-0.00459074974060059,0.00306868553161621,0.00659655636232149
2.086962822,-0.00747871398925781,-0.00452101230621338,0.00219905376434326,0.00901146784184051
2.091962822,-0.00549411773681641,0.00416350364685059,-0.0185314416885376,0.0197720616876189
2.096962822,-0.00856685638427734,0.00337982177734375,0.00380027294158936,0.00996274550442883
2.101962822,0.0045928955078125,-0.00807678699493408,0.0146808624267578,0.0173740294376581
2.106962822,0.000559806823730469,0.00368392467498779,0.00743770599365234,0.00831890348176315
2.111962822,-0.00771617889404297,-0.00175797939300537,0.00213134288787842,0.00819588499045806
2.116962822,-0.0023193359375,0.000220656394958496,0.00807011127471924,0.0083996847811073
2.121962822,0.00439071655273438,-0.00422430038452148,0.0112015008926392,0.0127513421973108
2.126962822,0.00042724609375,-0.00876486301422119,0.0128123760223389,0.0155294025068736
2.131962822,0.00467872619628906,-0.00576245784759522,0.0176156759262085,0.0191156594864617
2.136962822,0.00252723693847656,-0.00496149063110352,0.00312507152557373,0.00638509106165919
2.141962822,0.00862503051757813,-0.00258588790893555,-0.000712752342224121,0.00903249597885762
2.146962822,0.0140552520751953,-0.00435817241668701,-0.0155354738235474,0.0213984748202525
2.151962822,0.00487041473388672,-0.0179508924484253,-0.00387287139892578,0.0189988055479183
2.156962822,0.0144929885864258,-0.0000789165496826172,0.00979077816009522,0.0174903482803596
2.161962822,0.0143203735351563,-0.00562965869903564,-0.00143682956695557,0.0154541461898906
2.166962822,0.0063934326171875,-0.00894033908843994,-0.00377047061920166,0.0116199007025476
2.171962822,0.00285148620605469,-0.00885701179504395,0.00728249549865723,0.011815767948332
2.176962822,0.00322532653808594,-0.00493669509887695,-0.000947117805480957,0.0059724971254925
2.181962822,-0.00513744354248047,0.00062716007232666,-0.00846767425537109,0.00992412027353405
2.186962822,0.0108985900878906,0.0000478029251098633,-0.0112795829772949,0.0156847232415876
2.191962822,-0.00385951995849609,-0.000981330871582031,0.00381600856781006,0.00551550777165162
2.196962822,0.00175094604492188,0.00089561939239502,0.00086212158203125,0.00214737043158968
2.201962822,0.00419425964355469,0.00539374351501465,-0.0027923583984375,0.00738116173028599
2.206962822,0.00415611267089844,-0.00160622596740723,0.00437140464782715,0.00624198790343434
2.211962822,-0.000600814819335938,0.000701785087585449,0.00980234146118164,0.00984577974961311
2.216962822,0.00729274749755859,-0.00168085098266602,0.0144308805465698,0.0162560677729408
2.221962822,0.00253963470458984,-0.00868856906890869,-0.00609493255615234,0.0109127988968
2.226962822,0.00637531280517578,0.00563335418701172,0.00513052940368652,0.00993486913463145
2.231962822,0.000758171081542969,0.00703072547912598,0.00659704208374023,0.00967093006935522
2.236962822,0.00323963165283203,-0.0026170015335083,0.0172241926193237,0.0177205169693207
2.241962822,-0.00102806091308594,-0.00393271446228027,-0.0133479833602905,0.0139532007822376
2.246962822,-0.00855731964111328,-0.00014340877532959,0.0084381103515625,0.0120187350341944
2.251962822,-0.00425529479980469,-0.00402152538299561,-0.00247180461883545,0.00635531417893868
2.256962822,0.00223541259765625,-0.00400495529174805,-0.00319886207580566,0.00559190977669424
2.261962822,0.00999927520751953,-0.00402021408081055,-0.00843298435211182,0.0136844017411878
2.266962822,0.000185012817382813,0.000152468681335449,0.0000751018524169922,0.000251230431318661
2.271962822,-0.0010986328125,0.00526416301727295,-0.00688409805297852,0.00873551442859254
2.276962822,-0.000142097473144531,-0.000377058982849121,-0.000410795211791992,0.000575428426872102
2.281962822,-0.000057220458984375,-0.00774753093719482,-0.00773870944976807,0.0109505768684415
2.286962822,0.00187873840332031,-0.00050806999206543,0.0010610818862915,0.00221668398161846
2.291962822,-0.00206375122070313,-0.0036005973815918,-0.00345969200134277,0.00540303982489807
2.296962822,-0.014500617980957,0.00386524200439453,-0.00163757801055908,0.0150960153458738
2.301962822,0.00296974182128906,-0.00468361377716064,-0.000955581665039063,0.00562749862881201
2.306962822,-0.00266933441162109,-0.0135502815246582,-0.000800490379333496,0.0138338808888165
2.311962822,0.0120849609375,-0.00197231769561768,-0.00449573993682861,0.0130440789453661
2.316962822,0.00948619842529297,0.0123199224472046,-0.00191617012023926,0.0156665298518486
2.321962822,0.0068511962890625,-0.000365614891052246,0.00422251224517822,0.00805618858397089
2.326962822,-0.000665664672851563,0.00466299057006836,0.00427103042602539,0.00635832457596053
2.331962822,0.00325298309326172,-0.00406563282012939,0.0299826860427856,0.0304314431398416
2.336962822,0.00201892852783203,-0.00279903411865234,0.000542521476745606,0.00349356464812148
2.341962822,-0.00153827667236328,-0.00125336647033691,0.00205004215240479,0.00285305020221136
2.346962822,0.00410652160644531,0.00444769859313965,0.00213968753814697,0.00642057670622508
2.351962822,0.007904052734375,0.0137847661972046,-0.0031130313873291,0.0161921213297663
2.356962822,0.00783443450927734,-0.00293433666229248,0.00360405445098877,0.00910922083460059
2.361962822,0.012486457824707,-0.0211694240570068,0.0123487710952759,0.0275054229467043
2.366962822,0.00583267211914063,-0.0000842809677124023,0.00225162506103516,0.00625275801118199
2.371962822,-0.0114240646362305,0.00392544269561768,0.00710213184356689,0.014012802356872
2.376962822,-0.00258731842041016,0.00182294845581055,0.00163531303405762,0.00356252809118672
2.381962822,-0.00458145141601563,-0.00575506687164307,0.00369572639465332,0.00823218594047367
2.386962822,-0.00205039978027344,-0.00872707366943359,0.00933384895324707,0.0129416648995675
2.391962822,0.00704097747802734,-0.00804662704467773,0.013805627822876,0.0174619280214412
2.396962822,-0.00000762939453125,0.000354886054992676,0.00828933715820313,0.00829693394224977
2.401962822,-0.00005340576171875,0.00816404819488525,0.00722503662109375,0.0109020956370755
2.406962822,-0.00457286834716797,0.00257229804992676,0.0068209171295166,0.00860539090721164
2.411962822,0.000041961669921875,-0.00687146186828613,0.0128514766693115,0.0145732357961748
2.416962822,0.00276756286621094,-0.00402498245239258,0.0285816192626953,0.0289960143405637
2.421962822,-0.000607490539550781,0.00755393505096436,0.00305068492889404,0.0081693119689
2.426962822,0.00596714019775391,-0.0041736364364624,0.0177490711212158,0.0191847733609077
2.431962822,0.00267982482910156,0.0102219581604004,0.00744056701660156,0.0129240832276872
2.436962822,-0.000469207763671875,0.00563919544219971,0.0126227140426636,0.0138330615181048
2.441962822,-0.0138769149780273,-0.00317478179931641,0.0150512456893921,0.0207168531776212
2.446962822,0.00277042388916016,0.000780224800109863,-0.000157833099365234,0.00288251809215328
2.451962822,0.0106601715087891,-0.0150169134140015,0.00851547718048096,0.0202894134141849
2.456962822,-0.000522613525390625,-0.00232148170471191,0.0119949579238892,0.0122287128430634
2.461962822,-0.00676631927490234,-0.00613975524902344,-0.00507783889770508,0.0104529478578472
2.466962822,0.00298690795898438,-0.00374269485473633,-0.000847220420837402,0.00486283521956049
2.471962822,0.0196390151977539,-0.00370025634765625,-0.00549614429473877,0.0207265630794053
2.476962822,0.00700664520263672,0.00582337379455566,0.00883877277374268,0.0126936465797896
2.481962822,-0.00982666015625,0.00665903091430664,0.016143798828125,0.0200381681584693
2.486962822,-0.00204849243164063,0.00700497627258301,0.00307202339172363,0.00791854415541374
2.491962822,-0.00201892852783203,0.000834941864013672,-0.00366854667663574,0.00426982845503561
2.496962822,0.00466156005859375,-0.005867600440979,-0.0114905834197998,0.0137183229456895
2.501962822,-0.00493431091308594,-0.0127732753753662,-0.00332629680633545,0.0140914242873378
2.506962822,0.0162181854248047,0.0015251636505127,-0.00589621067047119,0.0173239996220495
2.511962822,-0.00209712982177734,0.0121474266052246,0.00620269775390625,0.0137996878966526
2.516962822,-0.0056915283203125,-0.00459980964660645,0.0118376016616821,0.0139169161995965
2.521962822,-0.00100517272949219,-0.00551736354827881,0.00805521011352539,0.00981519651932819
2.526962822,0.00406932830810547,-0.0128638744354248,-0.00153100490570068,0.0135787582050349
2.531962822,0.00271701812744141,-0.0138230323791504,0.00589704513549805,0.0152719858888747
2.536962822,-0.0112380981445313,-0.00788545608520508,-0.011090874671936,0.0176488744277477
2.541962822,-0.00448036193847656,0.00328350067138672,0.000081181526184082,0.00555532269080205
2.546962822,0.00666046142578125,0.0028376579284668,0.00925111770629883,0.0117472221286186
2.551962822,0.00683116912841797,-0.00577044486999512,0.00377416610717773,0.00970604118388506
2.556962822,0.00626945495605469,-0.00367140769958496,-0.00234615802764893,0.00763477291301267
2.561962822,-0.00124073028564453,-0.007956862449646,0.0106737613677979,0.013370873323048
2.566962822,0.00230216979980469,-0.00398242473602295,0.00188028812408447,0.0049694241109804
2.571962822,0.0003662109375,-0.00588452816009522,-0.00255978107452393,0.00642761707533897
2.576962822,0.00947666168212891,-0.000764131546020508,-0.00266575813293457,0.00987407109962556
2.581962822,0.0121355056762695,0.0049673318862915,-0.0055614709854126,0.0142434140433017
2.586962822,0.0193147659301758,0.00339341163635254,-0.0220968723297119,0.0295439874124465
2.591962822,0.0169715881347656,-0.0032731294631958,0.0000872611999511719,0.0172845536481558
2.596962822,0.00282382965087891,-0.00827097892761231,-0.0035254955291748,0.0094240238244829
2.601962822,0.00576877593994141,-0.00687170028686523,-0.00534665584564209,0.010444413310928
2.606962822,0.00445079803466797,-0.00762736797332764,-0.00299537181854248,0.00932515939152071
2.611962822,-0.00168800354003906,-0.0186548233032227,0.00316047668457031,0.018995799569888
2.616962822,-0.00333976745605469,-0.0183756351470947,0.00631332397460938,0.0197148693459541
2.621962822,-0.0158777236938477,0.00547599792480469,-0.0178200006484985,0.024487570032225
2.626962822,-0.0210552215576172,-0.0155009031295776,-0.00480508804321289,0.026583626986849
2.631962822,-0.0194187164306641,-0.00294077396392822,-0.00508999824523926,0.0202889817747959
2.636962822,-0.0180892944335938,-0.00287938117980957,0.00129473209381104,0.0183627269292617
2.641962822,-0.0173931121826172,0.000209331512451172,0.00558328628540039,0.0182684771347792
2.646962822,-0.00397872924804688,0.00585567951202393,0.0266523361206055,0.0275765532592913
2.651962822,-0.0104951858520508,0.00676286220550537,0.0272490978240967,0.0299732975080642
2.656962822,-0.00304126739501953,-0.00602388381958008,0.0249117612838745,0.0258095395911
2.661962822,0.0100955963134766,0.00522470474243164,0.017376184463501,0.0207641612178263
2.666962822,-0.00346565246582031,0.014014720916748,0.0296400785446167,0.0329690370729754
2.671962822,0.00175094604492188,0.00388121604919434,0.0260562896728516,0.0264018916289781
2.676962822,0.0120706558227539,0.0132112503051758,0.0310366153717041,0.035826098871472
2.681962822,0.0269355773925781,0.00691187381744385,0.0187723636627197,0.0335514674287911
2.686962822,-0.00104141235351563,0.0226236581802368,0.00508499145507813,0.0232114537942902
2.691962822,0.00281333923339844,0.00989305973052979,0.0244297981262207,0.0265066509571071
2.696962822,0.00996112823486328,0.00148558616638184,0.0130141973495483,0.0164560133271132
2.701962822,0.0296878814697266,-0.0157480239868164,0.00784540176391602,0.0345097217387671
2.706962822,0.00716495513916016,-0.0131479501724243,-0.00549411773681641,0.0159496239952148
2.711962822,0.0163431167602539,-0.0122776031494141,-0.00748288631439209,0.0217676501287555
2.716962822,0.015263557434082,-0.0103259086608887,-0.0147403478622437,0.0235982717654596
2.721962822,0.0112886428833008,-0.0235456228256226,-0.0138328075408936,0.0295495579807309
2.726962822,0.00869464874267578,-0.0213432312011719,-0.018449068069458,0.0295211542372023
2.731962822,0.00310802459716797,-0.0167720317840576,-0.0286214351654053,0.0333188748007723
2.736962822,-0.0231037139892578,-0.0166263580322266,-0.0193520784378052,0.0344197664340735
2.741962822,-0.0165376663208008,-0.0254899263381958,-0.017400860786438,0.0350145785091552
2.746962822,-0.00617218017578125,-0.0130234956741333,-0.0169591903686523,0.0222558168948405
2.751962822,-0.00224494934082031,0.00206398963928223,-0.017504096031189,0.0177677581209054
2.756962822,-0.00207901000976563,0.000165224075317383,-0.0135273933410645,0.0136872185713404
2.761962822,-0.00535297393798828,-0.00261557102203369,-0.00571644306182861,0.00825671018210114
2.766962822,-0.006500244140625,-0.00119554996490479,0.0105878114700317,0.01248135671036
2.771962822,-0.00189685821533203,0.00486338138580322,-0.000527262687683106,0.00524676619782821
2.776962822,-0.00623321533203125,0.0182275772094727,0.0234094858169556,0.0303166879872621
2.781962822,-0.00995349884033203,0.0113073587417603,0.0194302797317505,0.0245858551068176
2.786962822,-0.00729751586914063,0.0253309011459351,0.0165600776672363,0.0311310851572892
2.791962822,-0.00824260711669922,0.0201687812805176,0.0174875259399414,0.0279380363290218
2.796962822,-0.014948844909668,0.017653226852417,0.0155817270278931,0.0278907619044008
2.801962822,-0.00185203552246094,0.0131880044937134,0.0280348062515259,0.0310371367826231
2.806962822,-0.00694942474365234,0.0186601877212524,0.0109736919403076,0.0227358532908013
2.811962822,-0.000426292419433594,0.0200436115264893,0.0115182399749756,0.0231213741021767
2.816962822,-0.00313758850097656,0.0115219354629517,0.00927507877349854,0.0151204016040741
2.821962822,-0.00859165191650391,0.0039212703704834,0.00442612171173096,0.0104299279661871
2.826962822,0.00248432159423828,-0.00171101093292236,0.00400090217590332,0.00501065169587015
2.831962822,-0.00674724578857422,0.0111867189407349,0.00792121887207031,0.0152778831913872
2.836962822,-0.0123529434204102,0.00125885009765625,-0.00287306308746338,0.0127449757246049
2.841962822,-0.00517368316650391,-0.0022655725479126,0.00334334373474121,0.0065633652805443
2.846962822,-0.000904083251953125,-0.00230562686920166,0.000644564628601074,0.00255905164990674
2.851962822,0.00104904174804688,-0.0135500431060791,0.00503134727478027,0.01449201891267
2.856962822,-0.00611686706542969,-0.0165051221847534,-0.00161993503570557,0.0176765186207489
2.861962822,0.00296783447265625,-0.00874686241149902,0.000660896301269531,0.00926026065636454
2.866962822,0.00431442260742188,-0.0253455638885498,-0.0141814947128296,0.0293619931808794
2.871962822,0.00534152984619141,-0.0284653902053833,-0.00602114200592041,0.029581489680169
2.876962822,0.00880336761474609,-0.00852572917938232,0.00843250751495361,0.0148759713091375
2.881962822,0.0159616470336914,-0.00925445556640625,0.00993609428405762,0.0209557890207079
2.886962822,0.0213565826416016,-0.00630426406860352,0.0184698104858398,0.028930628526824
2.891962822,0.010340690612793,-0.00397562980651856,0.00448989868164063,0.0119538573221944
2.896962822,0.00672149658203125,0.00670301914215088,0.00312149524688721,0.00999263301130579
2.901962822,0.00470542907714844,0.00810039043426514,-0.00233900547027588,0.00965548209969801
2.906962822,0.005096435546875,0.00981521606445313,0.00481164455413818,0.0120608476066451
2.911962822,0.00755977630615234,0.00425732135772705,-0.0100144147872925,0.0132500379800951
2.916962822,0.0209321975708008,0.00819635391235352,0.00978732109069824,0.0245179274558846
2.921962822,0.0183324813842773,0.012921929359436,-0.00996017456054688,0.024541010764671
2.926962822,0.0128679275512695,0.0144191980361938,0.00970065593719482,0.0216240504319503
2.931962822,0.01800537109375,0.012556791305542,0.00700771808624268,0.0230428841270106
2.936962822,0.0109348297119141,0.0110617876052856,0.00118112564086914,0.0155989968790473
2.941962822,0.0189638137817383,-0.00374186038970947,-0.00465595722198486,0.0198822958930169
2.946962822,0.0200395584106445,-0.00195181369781494,-0.000838160514831543,0.0201518235168243
2.951962822,0.00789546966552734,-0.00759780406951904,0.007926344871521,0.0135237572789647
2.956962822,-0.00361156463623047,-0.0131659507751465,0.0144892930984497,0.0199079198669282
2.961962822,-0.0111045837402344,-0.0136398077011108,-0.00987708568572998,0.0201720835763293
2.966962822,-0.0242624282836914,-0.011355996131897,-0.00922739505767822,0.0283331765589281
2.971962822,-0.0226478576660156,-0.0153779983520508,-0.0290051698684692,0.0398836829953621
2.976962822,-0.0265293121337891,-0.0156131982803345,-0.0215002298355103,0.037547786163938
2.981962822,-0.0282707214355469,-0.00785899162292481,0.00753128528594971,0.0302938557775971
2.986962822,-0.0317974090576172,0.00344419479370117,0.0164481401443481,0.0359649692723699
2.991962822,-0.0335359573364258,0.00613462924957275,0.00589394569396973,0.0345981604473959
2.996962822,-0.015507698059082,0.00486338138580322,0.0193291902542114,0.0252538863044668
3.001962822,-0.00197696685791016,0.0163674354553223,0.0241563320159912,0.0292460205465328
3.006962822,-0.00148391723632813,0.0279412269592285,0.0272467136383057,0.0390550582951712
3.011962822,0.00182914733886719,0.0355660915374756,0.0164276361465454,0.0392193813898519
3.016962822,0.00685405731201172,0.0297771692276001,0.0348027944564819,0.0463129831777829
3.021962822,0.00643062591552734,0.0212863683700562,0.0214037895202637,0.0308639698334308
3.026962822,0.00874996185302734,0.0242081880569458,0.012568473815918,0.0286455011387705
3.031962822,0.0160293579101563,0.0134081840515137,0.0165889263153076,0.0266816826843035
3.036962822,0.0217132568359375,0.00263190269470215,0.00355839729309082,0.0221597523793305
3.041962822,0.025731086730957,0.000142693519592285,0.000753402709960938,0.0257425096181383
3.046962822,0.0193014144897461,-0.0049893856048584,-0.0130829811096191,0.0238453971393558
3.051962822,0.0165300369262695,-0.0108354091644287,-0.0148923397064209,0.0247473229759475
3.056962822,0.020115852355957,-0.0165858268737793,-0.00866365432739258,0.0274735522893962
3.061962822,0.00208663940429688,-0.0299097299575806,-0.00720429420471191,0.0308358211359289
3.066962822,0.000342369079589844,-0.0201886892318726,-0.0176420211791992,0.0268130807773948
3.071962822,-0.00125026702880859,-0.0156257152557373,-0.023510217666626,0.0282569722303866
3.076962822,0.0056610107421875,-0.0301060676574707,-0.0190176963806152,0.0360568319191333
3.081962822,-0.000164985656738281,-0.0263338088989258,-0.0309759378433228,0.0406571695604289
3.086962822,-0.00741291046142578,-0.0357605218887329,-0.0183380842208862,0.0408662635942654
3.091962822,0.000893592834472656,-0.016761302947998,-0.000562548637390137,0.016794530229745
3.096962822,-0.0134172439575195,-0.0233418941497803,-0.0135096311569214,0.0301226923084774
3.101962822,-0.0158510208129883,-0.00791871547698975,0.00355052947998047,0.0180711697243846
3.106962822,-0.00998783111572266,-0.00336146354675293,0.0134727954864502,0.017104748632823
3.111962822,-0.010249137878418,0.00339710712432861,0.0158916711807251,0.019212765989864
3.116962822,0.00368309020996094,0.00864815711975098,0.0220251083374023,0.0239470493451055
3.121962822,-0.00189590454101563,0.0320582389831543,0.0266178846359253,0.0417113524501556
3.126962822,0.0108623504638672,0.0149109363555908,0.00506603717803955,0.0191309020511223
3.131962822,-0.000244140625,0.0291266441345215,0.0192446708679199,0.034911006287393
3.136962822,-0.00662803649902344,0.0395983457565308,0.0156420469284058,0.0430886700490581
3.141962822,0.0028839111328125,0.0307296514511108,0.0154286623001099,0.0345061160100576
3.146962822,-0.00414848327636719,0.0194528102874756,0.0153419971466064,0.0251196858662941
3.151962822,-0.00652217864990234,0.0177701711654663,-0.00367653369903564,0.0192830157815461
3.156962822,-0.00796222686767578,0.0168571472167969,-0.00881874561309815,0.0206235482681724
3.161962822,0.00452709197998047,0.00467228889465332,0.00958454608917236,0.0115839703489682
3.166962822,-0.00181484222412109,-0.0110365152359009,-0.000576972961425781,0.0111996079685381
3.171962822,-0.00834751129150391,-0.0111061334609985,-0.0137394666671753,0.0195397054612836
3.176962822,-0.0275402069091797,-0.0152332782745361,-0.00835525989532471,0.0325626493318388
3.181962822,-0.0255260467529297,-0.0160691738128662,-0.015944242477417,0.0341176827765241
3.186962822,-0.0300130844116211,-0.0234583616256714,-0.0071946382522583,0.0387665162948739
3.191962822,-0.0280933380126953,-0.0348379611968994,-0.007240891456604,0.0453359646432999
3.196962822,-0.0198345184326172,-0.0346419811248779,-0.000832676887512207,0.0399270375623991
3.201962822,-0.00526905059814453,-0.0277076959609985,-0.00722897052764893,0.0291159290520251
3.206962822,-0.00107765197753906,-0.0330440998077393,-0.0054861307144165,0.0335137508510192
3.211962822,-0.0194644927978516,-0.0232136249542236,-0.00863492488861084,0.0315008061996026
3.216962822,-0.0047454833984375,0.00418853759765625,0.0075298547744751,0.00983677654602926
3.221962822,0.00259494781494141,0.00420403480529785,0.0100371837615967,0.0111871676786613
3.226962822,0.00571060180664063,-0.000968813896179199,0.0149818658828735,0.0160625613988507
3.231962822,0.0310277938842773,0.00875389575958252,0.0157712697982788,0.035889937800795
3.236962822,0.0283536911010742,0.0140563249588013,0.0167471170425415,0.0358047203541536
3.241962822,0.0218105316162109,-0.000200510025024414,0.00320351123809814,0.0220454525447879
3.246962822,0.0237894058227539,-0.000120759010314941,0.00163424015045166,0.0238457785154437
3.251962822,0.0326871871948242,0.00378227233886719,0.00369572639465332,0.0331121757717456
3.256962822,0.037907600402832,0.00939750671386719,-0.00435554981231689,0.0392972023801383
3.261962822,0.0289192199707031,-0.00490283966064453,0.00303220748901367,0.0294881909026026
3.266962822,0.0294075012207031,-0.00542747974395752,-0.0076524019241333,0.0308677488590471
3.271962822,0.0278968811035156,-0.00987517833709717,-0.0184420347213745,0.0348692381212659
3.276962822,0.00670242309570313,-0.0136469602584839,-0.0187216997146606,0.0241177121604927
3.281962822,-0.00385856628417969,-0.0222570896148682,-0.0273618698120117,0.0354815232410216
3.286962822,-0.0235958099365234,-0.0166620016098022,-0.0218231678009033,0.0362026959917625
3.291962822,-0.0111112594604492,-0.0329710245132446,-0.0111291408538818,0.0365295266927446
3.296962822,-0.0343694686889648,-0.0204894542694092,-0.0165387392044067,0.0432967436268748
3.301962822,-0.0396862030029297,-0.00969183444976807,-0.0135250091552734,0.0430331527597234
3.306962822,-0.0307340621948242,-0.0109281539916992,-0.0134413242340088,0.0352799706040888
3.311962822,-0.0281906127929688,-0.00142073631286621,0.00362479686737061,0.0284581850026225
3.316962822,-0.0193109512329102,0.0173352956771851,0.0167732238769531,0.0308992937291721
3.321962822,-0.0116662979125977,0.0078970193862915,0.0101429224014282,0.0173592712120739
3.326962822,-0.00592041015625,0.0232639312744141,0.0112378597259521,0.0265056832769704
3.331962822,0.0079803466796875,0.0163369178771973,0.0289790630340576,0.0342106257350866
3.336962822,0.00377655029296875,0.0272750854492188,0.0221192836761475,0.0353193336392887
3.341962822,0.00368404388427734,0.0282876491546631,0.016848087310791,0.0331303685471597
3.346962822,0.00660419464111328,0.0362129211425781,0.0195565223693848,0.0416827135839371
3.351962822,0.0119724273681641,0.0299452543258667,0.0155746936798096,0.0358138012077286
3.356962822,0.0172586441040039,0.0232230424880981,0.013873815536499,0.0320882105492575
3.361962822,0.0203275680541992,0.0262181758880615,-0.00185978412628174,0.0332274219116049
3.366962822,0.0164995193481445,0.0133016109466553,0.00838077068328857,0.0227904433862495
3.371962822,0.0258331298828125,0.00339424610137939,-0.00639545917510986,0.0268285930342887
3.376962822,0.0223102569580078,-0.0125133991241455,-0.00878500938415527,0.027046425143671
3.381962822,0.0243206024169922,-0.0126924514770508,-0.00863564014434815,0.0287604643064985
3.386962822,0.0152378082275391,-0.00651037693023682,-0.00888252258300781,0.0188009312213693
3.391962822,-0.00616931915283203,-0.018647313117981,-0.0172268152236938,0.0261255803395985
3.396962822,0.000734329223632813,-0.0304961204528809,-0.0132125616073608,0.0332434111714428
3.401962822,-0.00616836547851563,-0.027995228767395,-0.0110323429107666,0.0307163499868729
3.406962822,-0.00701141357421875,-0.0191859006881714,-0.0254126787185669,0.0326046460673662
3.411962822,0.0645675659179688,-0.0203161239624023,-0.00514733791351318,0.0678838018162126
3.416962822,0.0677328109741211,-0.0254827737808228,-0.0000463724136352539,0.0723678629808933
3.421962822,0.107841491699219,0.0015033483505249,0.0442842245101929,0.116589621873668
3.426962822,0.174178123474121,-0.000107884407043457,0.0441733598709106,0.179692281576857
3.431962822,0.204171180725098,-0.00763070583343506,0.0517758131027222,0.210771994184818
3.436962822,0.188534736633301,-0.00872170925140381,0.0536460876464844,0.196212430415171
3.441962822,0.111441612243652,0.00227117538452148,0.0245705842971802,0.114140723625692
3.446962822,0.00319671630859375,0.0054556131362915,0.018606424331665,0.0196515072261769
3.451962822,-0.0511398315429688,0.0331954956054688,-0.000214338302612305,0.0609694123281821
3.456962822,-0.0959672927856445,0.0373305082321167,-0.00238144397735596,0.102999802936176
3.461962822,-0.148317337036133,0.0517845153808594,-0.00806164741516113,0.157304350409538
3.466962822,-0.212349891662598,0.0592843294143677,-0.030683159828186,0.222595068454515
3.471962822,-0.26931095123291,0.0613110065460205,-0.0463780164718628,0.280068470895111
3.476962822,-0.270813941955566,0.0631121397018433,-0.0460993051528931,0.281866066192505
3.481962822,-0.230918884277344,0.0439375638961792,-0.0416930913925171,0.238730715465959
3.486962822,-0.166821479797363,0.0137453079223633,-0.0363378524780273,0.171285665291575
3.491962822,-0.132061958312988,-0.0133062601089478,-0.0457612276077271,0.14039767570624
3.496962822,-0.111629486083984,-0.00104451179504395,-0.049768328666687,0.122225691679531
3.501962822,-0.0817747116088867,-0.0108026266098022,-0.0405009984970093,0.0918919532910371
3.506962822,-0.0606002807617188,-0.0105700492858887,-0.0476359128952026,0.0778029573195299
3.511962822,-0.0100021362304688,-0.0299173593521118,-0.0330615043640137,0.0456963257887102
3.516962822,0.0494937896728516,-0.0374608039855957,-0.0121698379516602,0.0632538695037494
3.521962822,0.105931282043457,-0.0450321435928345,-0.000839710235595703,0.11510879890441
3.526962822,0.140042304992676,-0.0564583539962769,-0.0025632381439209,0.151016433256163
3.531962822,0.174784660339355,-0.0795807838439941,0.00066685676574707,0.192050054270012
3.536962822,0.255891799926758,-0.0833948850631714,0.00851750373840332,0.269272850459138
3.541962822,0.502710342407227,-0.14775562286377,0.0519245862960815,0.526541142849323
3.546962822,0.950387001037598,-0.219491958618164,0.1244056224823,0.983305105521417
3.551962822,1.33545684814453,-0.290808200836182,0.180343270301819,1.3786000500772
3.556962822,1.52620601654053,-0.320831179618835,0.209151148796082,1.57352523137789
3.561962822,1.73981952667236,-0.36348021030426,0.265058279037476,1.79703804633057
3.566962822,1.85886383056641,-0.383245706558228,0.253095149993897,1.91476086421615
3.571962822,1.99272727966309,-0.411708831787109,0.304983735084534,2.05754252737363
3.576962822,2.02828121185303,-0.411288499832153,0.300235509872437,2.0912255415996
3.581962822,2.00824165344238,-0.40770947933197,0.312968730926514,2.07297153494588
3.586962822,1.88687515258789,-0.38734495639801,0.282834053039551,1.946876744496
3.591962822,1.72251892089844,-0.340729117393494,0.294145107269287,1.78036207228286
3.596962822,1.53111743927002,-0.315899133682251,0.263500452041626,1.58541646381136
3.601962822,1.32851791381836,-0.2955402135849,0.223137736320496,1.3791643537129
3.606962822,1.09068298339844,-0.249993562698364,0.187788128852844,1.13461470685144
3.611962822,0.813801765441895,-0.188443064689636,0.159802675247192,0.850482802343543
3.616962822,0.54057502746582,-0.135948061943054,0.124390959739685,0.5711185049801
3.621962822,0.33854866027832,-0.0782039165496826,0.105690717697144,0.363182565312946
3.626962822,0.279872894287109,-0.0752981901168823,0.100987672805786,0.306915565669534
3.631962822,0.203986167907715,-0.063102126121521,0.0951051712036133,0.233746077204302
3.636962822,0.107161521911621,-0.0318894386291504,0.102861523628235,0.151924392766992
3.641962822,0.0235042572021484,-0.00620830059051514,0.0970137119293213,0.100013266145808
3.646962822,-0.0393714904785156,0.000439763069152832,0.0905991792678833,0.0987852161918518
3.651962822,-0.124197959899902,0.0404671430587769,0.0741533041000366,0.150204645133197
3.656962822,-0.23639965057373,0.0636417865753174,0.0570201873779297,0.251368998801551
3.661962822,-0.36602783203125,0.0931929349899292,0.0303232669830322,0.378920568818926
3.666962822,-0.506482124328613,0.126562595367432,0.0177621841430664,0.522357854345177
3.671962822,-0.687416076660156,0.159106135368347,-0.0142781734466553,0.70573330019184
3.676962822,-0.904419898986816,0.20032000541687,-0.067508339881897,0.928795367240356
3.681962822,-1.11762237548828,0.261775970458984,-0.110364079475403,1.15316376241203
3.686962822,-1.36161327362061,0.272882342338562,-0.161313533782959,1.39802630012513
3.691962822,-1.5952205657959,0.326764822006226,-0.200560212135315,1.6406487439823
3.696962822,-1.8033595085144,0.36073899269104,-0.243794322013855,1.85517487295491
3.701962822,-1.95027160644531,0.384334683418274,-0.290400624275208,2.00888153218761
3.706962822,-2.0449914932251,0.392130494117737,-0.309791803359985,2.10516685638195
3.711962822,-2.06669521331787,0.401341319084168,-0.32148814201355,2.12970856799952
3.716962822,-2.04876708984375,0.401333928108215,-0.326053142547607,2.1130135262328
3.721962822,-1.99033880233765,0.388585567474365,-0.320513725280762,2.05308946211157
3.726962822,-1.90394687652588,0.369890570640564,-0.306426405906677,1.96360125410388
3.731962822,-1.77831697463989,0.347877025604248,-0.272983074188232,1.83247085816634
3.736962822,-1.64218616485596,0.332485318183899,-0.262741327285767,1.69598198454938
3.741962822,-1.54261589050293,0.3064284324646,-0.227386236190796,1.58910876602701
3.746962822,-1.47000694274902,0.288758873939514,-0.225441217422485,1.51496727407627
3.751962822,-1.43618011474609,0.288364171981812,-0.224339723587036,1.48192291609718
3.756962822,-1.42520236968994,0.2921462059021,-0.206130266189575,1.46936751251421
3.761962822,-1.41144943237305,0.285792708396912,-0.205729126930237,1.45471352712021
3.766962822,-1.40556335449219,0.275658965110779,-0.185981154441834,1.44436325013647
3.771962822,-1.41425800323486,0.271065473556519,-0.182427883148193,1.45151029042794
3.776962822,-1.42598724365234,0.269817113876343,-0.187365651130676,1.46333413177695
3.781962822,-1.41634178161621,0.273285984992981,-0.1784747838974,1.45346569289839
3.786962822,-1.35049152374268,0.261664986610413,-0.164354205131531,1.38539100100407
3.791962822,-1.24572658538818,0.235366225242615,-0.144649982452393,1.27599200740104
3.796962822,-1.08697319030762,0.192319512367249,-0.11078143119812,1.1094007557159
3.801962822,-0.885061264038086,0.17292582988739,-0.0851418972015381,0.90580678204682
3.806962822,-0.691072463989258,0.115496754646301,-0.0328031778335571,0.701424763815758
3.811962822,-0.515560150146484,0.0782762765884399,0.00199759006500244,0.521472371522867
3.816962822,-0.351910591125488,0.0431497097015381,0.0228109359741211,0.35527918654719
3.821962822,-0.217926025390625,0.0282514095306397,0.0401163101196289,0.223381317528207
3.826962822,-0.122296333312988,-0.00229859352111816,0.0590797662734985,0.135838490336532
3.831962822,-0.08135986328125,-0.016152024269104,0.0632776021957398,0.104328184977865
3.836962822,-0.0471010208129883,-0.028883695602417,0.0584394931793213,0.0804235562278527
3.841962822,-0.0463552474975586,-0.0252567529678345,0.0514686107635498,0.0737274062677368
3.846962822,-0.0422992706298828,-0.0346416234970093,0.051416277885437,0.0750526748751908
3.851962822,-0.00320053100585938,-0.0494527816772461,0.0428131818771362,0.0654888506295658
3.856962822,0.00876235961914063,-0.0575623512268066,0.0469210147857666,0.0747782378328048
3.861962822,0.0276050567626953,-0.0474708080291748,0.0398005247116089,0.0678203401726487
3.866962822,0.0924463272094727,-0.0705567598342896,0.0496171712875366,0.126437508119273
3.871962822,0.175553321838379,-0.0910719633102417,0.0523390769958496,0.204578714167552
3.876962822,0.303232192993164,-0.111754536628723,0.0641039609909058,0.329466473467738
3.881962822,0.42197322845459,-0.122807860374451,0.0675514936447144,0.444641856324584
3.886962822,0.527957916259766,-0.158715128898621,0.0590939521789551,0.554456624693752
3.891962822,0.614717483520508,-0.164072036743164,0.0690727233886719,0.639975201787666
3.896962822,0.650144577026367,-0.165371179580688,0.0653698444366455,0.674024342760982
3.901962822,0.634313583374023,-0.176837563514709,0.0389381647109985,0.659652504424621
3.906962822,0.563928604125977,-0.160509705543518,0.0210380554199219,0.586703874114524
3.911962822,0.457026481628418,-0.125906944274902,-0.00503671169281006,0.474079246530546
3.916962822,0.33025074005127,-0.136862277984619,-0.0477683544158936,0.360664179151677
3.921962822,0.212806701660156,-0.0931092500686646,-0.0628730058670044,0.240642971197116
3.926962822,0.0994949340820313,-0.0634878873825073,-0.102344870567322,0.156219161064587
3.931962822,-0.00054168701171875,-0.0447483062744141,-0.117065906524658,0.125328092659577
3.936962822,-0.0872888565063477,-0.0306953191757202,-0.147875070571899,0.174437907537695
3.941962822,-0.173642158508301,0.00924324989318848,-0.15677011013031,0.234123694465723
3.946962822,-0.214187622070313,0.0160708427429199,-0.187658071517944,0.285219496599438
3.951962822,-0.237204551696777,0.0281815528869629,-0.180151343345642,0.29919008302086
3.956962822,-0.25106143951416,0.0273882150650024,-0.161479949951172,0.299762797844566
3.961962822,-0.245342254638672,0.0299322605133057,-0.153917670249939,0.291169042560833
3.966962822,-0.226958274841309,0.0277321338653564,-0.172004103660584,0.286119802606792
3.971962822,-0.225837707519531,0.0265477895736694,-0.145813226699829,0.270127659356721
3.976962822,-0.211472511291504,0.0326251983642578,-0.152097582817078,0.262523715688774
3.981962822,-0.236049652099609,0.0351065397262573,-0.138661026954651,0.276005050287158
3.986962822,-0.241216659545898,0.0457074642181397,-0.13351583480835,0.279465789091089
3.991962822,-0.250279426574707,0.0487837791442871,-0.127826571464539,0.28523548314777
3.996962822,-0.274479866027832,0.0492534637451172,-0.116170763969421,0.302093937289028
4.001962822,-0.360758781433105,0.0600274801254272,-0.137840270996094,0.390832620260367
4.006962822,-0.285740852355957,0.0490529537200928,-0.0823540687561035,0.301390476980377
4.011962822,-0.30909538269043,0.0638501644134522,-0.106284618377686,0.333036363179546
4.016962822,-0.330635070800781,0.0670614242553711,-0.10704505443573,0.353942690764684
4.021962822,-0.327383041381836,0.065688967704773,-0.119947791099548,0.354798772337505
4.026962822,-0.19398021697998,0.0491964817047119,-0.107418537139893,0.227128511008629
4.031962822,-0.115601539611816,0.0334690809249878,-0.110432744026184,0.163337951167934
4.036962822,-0.130547523498535,0.0333651304244995,-0.0856561660766602,0.159664857143947
4.041962822,-0.0382404327392578,0.0119079351425171,-0.106387495994568,0.113676861847248
4.046962822,0.160447120666504,-0.0246014595031738,-0.0822339057922363,0.181964077778292
4.051962822,0.356278419494629,-0.0626153945922852,-0.0522409677505493,0.365491612145959
4.056962822,0.433414459228516,-0.069882869720459,-0.0257973670959473,0.439769499963102
4.061962822,0.505693435668945,-0.083240270614624,-0.0377745628356934,0.513888812028522
4.066962822,0.602194786071777,-0.113794326782227,-0.0591741800308228,0.61570227607357
4.071962822,0.709494590759277,-0.130733966827393,-0.0498182773590088,0.723156833030097
4.076962822,0.725315093994141,-0.126761436462402,-0.0396181344985962,0.737373747790691
4.081962822,0.721490859985352,-0.123250722885132,-0.0555254220962524,0.73404555324113
4.086962822,0.750711441040039,-0.125988483428955,-0.0699707269668579,0.764419170545461
4.091962822,0.76236629486084,-0.160944104194641,-0.0592759847640991,0.781421150586938
4.096962822,0.739221572875977,-0.148406624794006,-0.0692960023880005,0.757149256114631
4.101962822,0.705789566040039,-0.143396854400635,-0.0709173679351807,0.723692505459216
4.106962822,0.704910278320313,-0.139589667320251,-0.0666855573654175,0.721686039261766
4.111962822,0.693911552429199,-0.15069580078125,-0.0693604946136475,0.713465728105319
4.116962822,0.681370735168457,-0.144342660903931,-0.041549563407898,0.697730068665682
4.121962822,0.67008113861084,-0.142673015594482,-0.00816965103149414,0.685150395824741
4.126962822,0.648829460144043,-0.135579824447632,-0.00872254371643066,0.662900927678447
4.131962822,0.655348777770996,-0.1253741979599,0.0150729417800903,0.667403853460506
4.136962822,0.661022186279297,-0.124205112457275,0.035706639289856,0.673537084950311
4.141962822,0.71288013458252,-0.139708280563355,0.0829153060913086,0.731157601290293
4.146962822,0.736578941345215,-0.137422561645508,0.122890949249268,0.759299468385062
4.151962822,0.742639541625977,-0.14221715927124,0.144101500511169,0.769743107554197
4.156962822,0.720963478088379,-0.136080622673035,0.141994833946228,0.747307704678461
4.161962822,0.651501655578613,-0.131137371063232,0.179975271224976,0.688507454980375
4.166962822,0.527581214904785,-0.0981414318084717,0.185360670089722,0.567743125871143
4.171962822,0.350749969482422,-0.0546115636825562,0.173790097236633,0.39523532468302
4.176962822,0.168060302734375,-0.024768590927124,0.147195816040039,0.224776236981087
4.181962822,-0.0140724182128906,0.0155344009399414,0.157566905021667,0.158954962568108
4.186962822,-0.193545341491699,0.0468074083328247,0.143967986106873,0.245718362585385
4.191962822,-0.366016387939453,0.0766075849533081,0.144231200218201,0.40079839998309
4.196962822,-0.492609024047852,0.103447318077087,0.191529035568237,0.538561388939477
4.201962822,-0.720654487609863,0.174228191375732,0.483420848846436,0.885095514778886
4.206962822,-0.975142478942871,0.270226716995239,0.826915264129639,1.30679538829438
4.211962822,-1.03493022918701,0.24678361415863,0.88046658039093,1.38101561565667
4.216962822,-0.930313110351563,0.209287166595459,0.757424592971802,1.21777486237484
4.221962822,-0.747971534729004,0.177836775779724,0.495189309120178,0.914494279616613
4.226962822,-0.555154800415039,0.148426651954651,0.202158689498901,0.609176049409563
4.231962822,-0.46729564666748,0.136409282684326,0.0898195505142212,0.495015419407727
4.236962822,-0.46352481842041,0.121502995491028,0.0809091329574585,0.485967615177076
4.241962822,-0.52036190032959,0.151482701301575,0.0887736082077026,0.549185095958056
4.246962822,-0.631556510925293,0.171497464179993,0.0457335710525513,0.6560232970204
4.251962822,-0.714366912841797,0.196581363677979,0.0290502309799194,0.741490549251034
4.256962822,-0.75129508972168,0.19575822353363,0.0017014741897583,0.776381664476543
4.261962822,-0.744944572448731,0.185332536697388,-0.00955307483673096,0.767712072601667
4.266962822,-0.751838684082031,0.204042077064514,-0.0214961767196655,0.779330906424585
4.271962822,-0.757537841796875,0.19353723526001,-0.0391160249710083,0.782847562808934
4.276962822,-0.78497314453125,0.1962651014328,-0.0535768270492554,0.810908936978975
4.281962822,-0.771129608154297,0.187730312347412,-0.0658231973648071,0.796376943449258
4.286962822,-0.690682411193848,0.171329975128174,-0.0505574941635132,0.71340886855019
4.291962822,-0.545854568481445,0.151080012321472,-0.0370544195175171,0.567587358968557
4.296962822,-0.344695091247559,0.120789885520935,-0.022478461265564,0.365937403930222
4.301962822,-0.186710357666016,0.0861197710037231,-0.0160330533981323,0.206238772830844
4.306962822,-0.0030059814453125,0.0417563915252686,0.00138139724731445,0.041887234523372
4.311962822,0.146834373474121,0.0187379121780396,0.0193054676055908,0.149278744856058
4.316962822,0.269999504089355,-0.00144863128662109,0.0414814949035645,0.273171274405888
4.321962822,0.342223167419434,-0.0175669193267822,0.0468281507492065,0.345858596359573
4.326962822,0.380525588989258,-0.020263671875,0.0449720621109009,0.383709299657939
4.331962822,0.390501976013184,-0.0346184968948364,0.056976318359375,0.396152160730252
4.336962822,0.330598831176758,-0.0225849151611328,0.0431283712387085,0.334164214083402
4.341962822,0.24564266204834,-0.00557482242584229,0.0314713716506958,0.2477132279408
4.346962822,0.170337677001953,0.00181913375854492,-0.0012587308883667,0.170352040954908
4.351962822,0.127586364746094,0.0173639059066772,0.00634908676147461,0.128918953611034
4.356962822,0.0708990097045898,0.0281252861022949,0.00051569938659668,0.0762756005632522
4.361962822,0.00589752197265625,0.0287299156188965,-0.0197232961654663,0.0353439843328051
4.366962822,-0.014704704284668,0.0318177938461304,-0.0210765600204468,0.0409001432226084
4.371962822,0.0276365280151367,0.0234917402267456,-0.002860426902771,0.0363843590252519
4.376962822,0.116401672363281,0.0105116367340088,0.0252596139907837,0.119573792842578
4.381962822,0.200921058654785,-0.00132036209106445,0.0493894815444946,0.20690658774975
4.386962822,0.284278869628906,0.00128495693206787,0.0690226554870606,0.292541029263061
4.391962822,0.335589408874512,-0.0186574459075928,0.0754557847976685,0.344473405498844
4.396962822,0.384513854980469,-0.0294311046600342,0.0803983211517334,0.393930177363284
4.401962822,0.426437377929688,-0.0351369380950928,0.11415958404541,0.44284969497976
4.406962822,0.471725463867188,-0.035557746887207,0.113441705703735,0.486475371645247
4.411962822,0.473423004150391,-0.0493988990783691,0.119393944740295,0.490738735102075
4.416962822,0.392169952392578,-0.0326900482177734,0.091364860534668,0.403996842255724
4.421962822,0.27193546295166,-0.017970085144043,0.0698249340057373,0.281331372903421
4.426962822,0.171384811401367,0.00872015953063965,0.0440340042114258,0.177165990777615
4.431962822,0.104166030883789,0.0143668651580811,0.0245593786239624,0.107982090565742
4.436962822,0.0809011459350586,0.0208463668823242,0.0184894800186157,0.0855653393446021
4.441962822,0.0912666320800781,0.0118253231048584,0.0121364593505859,0.0928263434771782
4.446962822,0.116162300109863,0.0130321979522705,0.0175219774246216,0.118197029756039
4.451962822,0.115964889526367,0.0126874446868896,-0.00861573219299316,0.116974602785249
4.456962822,0.107728004455566,0.0177867412567139,-0.00397670269012451,0.109258891046896
4.461962822,0.110489845275879,0.0137076377868652,-0.0179338455200195,0.112772018062636
4.466962822,0.12474250793457,0.0155882835388184,-0.0218639373779297,0.127599841799114
4.471962822,0.134444236755371,0.00788640975952148,-0.0234205722808838,0.136696640271784
4.476962822,0.151263236999512,0.0174069404602051,-0.0399371385574341,0.157412018219421
4.481962822,0.197077751159668,-0.00344157218933105,-0.0450471639633179,0.20218984000791
4.486962822,0.231765747070313,-0.0096123218536377,-0.0434510707855225,0.235999478386895
4.491962822,0.24705982208252,-0.0214667320251465,-0.050352931022644,0.253050971019391
4.496962822,0.25445556640625,-0.0299272537231445,-0.0639843940734863,0.264078167358618
4.501962822,0.270991325378418,-0.0332159996032715,-0.0533461570739746,0.278182338645999
4.506962822,0.27454662322998,-0.0354175567626953,-0.0618098974227905,0.283638352613746
4.511962822,0.291831970214844,-0.029515266418457,-0.0483371019363403,0.297276849443131
4.516962822,0.328179359436035,-0.0325415134429932,-0.0480778217315674,0.333274840033656
4.521962822,0.371180534362793,-0.0577595233917236,-0.0456770658493042,0.37841451607581
4.526962822,0.423104286193848,-0.0606908798217773,-0.0319339036941528,0.428626170566257
4.531962822,0.404925346374512,-0.0488080978393555,-0.0321388244628906,0.409120606409737
4.536962822,0.365676879882813,-0.050102710723877,-0.0472345352172852,0.372103431077842
4.541962822,0.275736808776855,-0.0324473381042481,-0.0515702962875366,0.282388230851925
4.546962822,0.164614677429199,-0.0129885673522949,-0.0640896558761597,0.177127578025865
4.551962822,0.0133543014526367,0.0286719799041748,-0.0882755517959595,0.0937709594906356
4.556962822,-0.113293647766113,0.060657262802124,-0.0914114713668823,0.157704823173727
4.561962822,-0.246553421020508,0.0595645904541016,-0.137727379798889,0.288626681024378
4.566962822,-0.370701789855957,0.10145092010498,-0.127259850502014,0.404854511821657
4.571962822,-0.521682739257813,0.132795691490173,-0.132012963294983,0.554269788637096
4.576962822,-0.656244277954102,0.15029513835907,-0.157437205314636,0.691398332785924
4.581962822,-0.757645606994629,0.166780829429626,-0.168802738189697,0.793937702394737
4.586962822,-0.840517997741699,0.19411301612854,-0.16110110282898,0.877555658001786
4.591962822,-0.900123596191406,0.20931887626648,-0.176444053649902,0.940834408623761
4.596962822,-0.959518432617188,0.223732709884644,-0.182667016983032,1.00204749742612
4.601962822,-0.979573249816895,0.229773640632629,-0.16376805305481,1.01940161510946
4.606962822,-0.975001335144043,0.219725966453552,-0.164196968078613,1.01285129618954
4.611962822,-0.926242828369141,0.216282248497009,-0.136575937271118,0.960914551227981
4.616962822,-0.864795684814453,0.210773587226868,-0.119150638580322,0.898050085585587
4.621962822,-0.777387619018555,0.18490731716156,-0.0967211723327637,0.804908200554975
4.626962822,-0.649826049804688,0.172556400299072,-0.0724771022796631,0.676241478056319
4.631962822,-0.509849548339844,0.127541303634644,-0.0490778684616089,0.527846552747957
4.636962822,-0.352925300598145,0.0920095443725586,-0.0120867490768433,0.364922065051133
4.641962822,-0.190832138061523,0.0696916580200195,0.026349663734436,0.204861262550121
4.646962822,-0.0136337280273438,0.0138392448425293,0.0689167976379395,0.0716025714231252
4.651962822,0.15211009979248,-0.0263993740081787,0.092170000076294,0.179804667127875
4.656962822,0.346866607666016,-0.0604939460754395,0.126339316368103,0.374082322338102
4.661962822,0.528095245361328,-0.117974519729614,0.179005742073059,0.569952306051832
4.666962822,0.670066833496094,-0.155868768692017,0.203883767127991,0.717532734377567
4.671962822,0.791094779968262,-0.181899309158325,0.208312392234802,0.838040787983434
4.676962822,0.908933639526367,-0.203931570053101,0.23974621295929,0.961887047919501
4.681962822,0.924073219299316,-0.222681760787964,0.257239699363709,0.984718611656427
4.686962822,0.995074272155762,-0.220966100692749,0.248760938644409,1.04922868306053
4.691962822,1.01378726959229,-0.230777025222778,0.251466155052185,1.06969990674711
4.696962822,1.00658702850342,-0.230208873748779,0.246305584907532,1.06154604829968
4.701962822,0.962764739990234,-0.229795694351196,0.225279331207275,1.01512205314435
4.706962822,0.906032562255859,-0.215980529785156,0.206897735595703,0.954122249037734
4.711962822,0.828082084655762,-0.201991081237793,0.162304997444153,0.867676926063377
4.716962822,0.747538566589356,-0.174763679504395,0.141550183296204,0.780636091020375
4.721962822,0.680624961853027,-0.159673452377319,0.113822460174561,0.70830890332659
4.726962822,0.639163017272949,-0.151458263397217,0.0897799730300903,0.662970143941675
4.731962822,0.583707809448242,-0.134628295898438,0.0582350492477417,0.60185621690589
4.736962822,0.510283470153809,-0.0961790084838867,0.0248210430145264,0.51986123702531
4.741962822,0.445752143859863,-0.0905094146728516,-0.00307714939117432,0.454858655791513
4.746962822,0.370688438415527,-0.0629692077636719,-0.0259443521499634,0.376892755183498
4.751962822,0.295819282531738,-0.0535085201263428,-0.0528765916824341,0.30523457142279
4.756962822,0.20573902130127,-0.0304238796234131,-0.0717682838439941,0.220011008595607
4.761962822,0.0832977294921875,0.00381994247436523,-0.0704969167709351,0.109192119556629
4.766962822,-0.0699071884155273,0.0400098562240601,-0.11320698261261,0.138937484141198
4.771962822,-0.244424819946289,0.0731567144393921,-0.109317183494568,0.277570971249747
4.776962822,-0.430313110351563,0.113749146461487,-0.130195260047913,0.463744592421406
4.781962822,-0.579388618469238,0.14044713973999,-0.142725706100464,0.613014842768683
4.786962822,-0.726705551147461,0.160557389259338,-0.157286167144775,0.760669817785223
4.791962822,-0.91934871673584,0.205525755882263,-0.172681093215942,0.957737782093337
4.796962822,-1.10167217254639,0.249140739440918,-0.176487326622009,1.14319747212388
4.801962822,-1.23493194580078,0.282660484313965,-0.187714219093323,1.28069921847471
4.806962822,-1.27905082702637,0.272224903106689,-0.180114388465881,1.32004492685693
4.811962822,-1.23301982879639,0.26679515838623,-0.162258625030518,1.27194552404582
4.816962822,-1.14328575134277,0.244537949562073,-0.131273031234741,1.17649212778029
4.821962822,-1.08803844451904,0.230308532714844,-0.11129891872406,1.11770171615768
4.826962822,-1.08145999908447,0.23090934753418,-0.11260199546814,1.11155479657184
4.831962822,-1.04735851287842,0.220631122589111,-0.0907938480377197,1.07418874951999
4.836962822,-0.962780952453613,0.1981201171875,-0.0795114040374756,0.986164695481382
4.841962822,-0.87370777130127,0.180878400802612,-0.0614612102508545,0.894348783123588
4.846962822,-0.786109924316406,0.153647541999817,-0.0525740385055542,0.802708172249489
4.851962822,-0.716156959533691,0.124807119369507,-0.042363166809082,0.728184211333883
4.856962822,-0.65300464630127,0.099795937538147,-0.0380897521972656,0.661683554626086
4.861962822,-0.524103164672852,0.0953422784805298,-0.020859956741333,0.533112947771115
4.866962822,-0.377276420593262,0.0548722743988037,-0.00780630111694336,0.381325848023039
4.871962822,-0.218029975891113,0.00977087020874023,0.00414121150970459,0.218288089286804
4.876962822,-0.0573701858520508,-0.0125916004180908,0.0199193954467773,0.0620215199809938
4.881962822,0.071807861328125,-0.0497641563415527,0.0102347135543823,0.0879635695412936
4.886962822,0.210201263427734,-0.0849235057830811,0.0164227485656738,0.227302176961762
4.891962822,0.330071449279785,-0.110469579696655,0.0245101451873779,0.348928985447067
4.896962822,0.433639526367188,-0.131103515625,0.0170692205429077,0.453346146919918
4.901962822,0.510485649108887,-0.150232076644897,-0.00898313522338867,0.532208578959041
4.906962822,0.560762405395508,-0.153576135635376,-0.0182299613952637,0.581697890862709
4.911962822,0.555980682373047,-0.166967153549194,-0.0689017772674561,0.584585326917237
4.916962822,0.558004379272461,-0.164376258850098,-0.0869317054748535,0.588171372286654
4.921962822,0.565260887145996,-0.173243284225464,-0.109933614730835,0.601347242210431
4.926962822,0.587482452392578,-0.170490503311157,-0.131969571113586,0.625794384193717
4.931962822,0.630276679992676,-0.175076484680176,-0.137778162956238,0.668493299157257
4.936962822,0.699854850769043,-0.186808109283447,-0.138797640800476,0.737535671632765
4.941962822,0.787849426269531,-0.205133438110352,-0.123673915863037,0.823457153329243
4.946962822,0.852569580078125,-0.21573805809021,-0.121931910514832,0.887854261342999
4.951962822,0.895747184753418,-0.222166299819946,-0.0928210020065308,0.927543326310344
4.956962822,1.07473278045654,-0.255561351776123,-0.0700740814208984,1.10692029107632
4.961962822,1.29863548278809,-0.303359985351563,-0.0250035524368286,1.33383153940189
4.966962822,1.29440975189209,-0.31460165977478,-0.00630271434783936,1.33210755359113
4.971962822,1.24361133575439,-0.305970907211304,-0.00477886199951172,1.28070690948341
4.976962822,1.22039604187012,-0.290648460388184,-0.000142931938171387,1.254529014
4.981962822,0.965693473815918,-0.248492240905762,-0.0418326854705811,0.99802918431011
4.986962822,0.609890937805176,-0.165605068206787,-0.0572777986526489,0.634565001281307
4.991962822,0.442681312561035,-0.126595973968506,-0.112814664840698,0.474046868694346
4.996962822,0.474771499633789,-0.134002685546875,-0.0825798511505127,0.500184094523539
5.001962822,0.141447067260742,-0.0746908187866211,-0.160098671913147,0.226313004478387
5.006962822,-0.255607604980469,0.01393723487854,-0.132237315177917,0.288125323019992
5.011962822,-0.42429256439209,0.0737199783325195,-0.185500025749207,0.468901988646582
5.016962822,-0.360408782958984,0.0613803863525391,-0.188659906387329,0.411405642815991
5.021962822,-0.462089538574219,0.0841054916381836,-0.196847677230835,0.509263667872164
5.026962822,-0.594916343688965,0.125115871429443,-0.16101062297821,0.628890974639982
5.031962822,-0.817174911499023,0.171770095825195,-0.235860466957092,0.86770384445181
5.036962822,-0.727415084838867,0.150019645690918,-0.171381831169128,0.762240337294773
5.041962822,-0.847239494323731,0.187934994697571,-0.222629427909851,0.89593425269122
5.046962822,-0.87412166595459,0.202989816665649,-0.194379329681396,0.918192178342078
5.051962822,-0.875720024108887,0.197487354278564,-0.21738862991333,0.923658287539722
5.056962822,-0.916087150573731,0.208319664001465,-0.181474924087524,0.9568416263565
5.061962822,-1.10953712463379,0.243020057678223,-0.286793112754822,1.17148694781382
5.066962822,-1.15691184997559,0.248601078987122,-0.246642112731934,1.20875136271293
5.071962822,-1.15197944641113,0.247268319129944,-0.242384910583496,1.20289181204197
5.076962822,-1.06560516357422,0.234339714050293,-0.224504590034485,1.11392628892749
5.081962822,-1.00255012512207,0.223201632499695,-0.222034335136414,1.05082109234269
5.086962822,-0.983602523803711,0.218895435333252,-0.2212073802948,1.03165975085764
5.091962822,-0.878960609436035,0.190921902656555,-0.188294649124146,0.918954732695224
5.096962822,-0.818262100219727,0.174513697624207,-0.203668832778931,0.861097490856873
5.101962822,-0.65451717376709,0.144950985908508,-0.185097217559814,0.695459919060971
5.106962822,-0.456762313842773,0.111279249191284,-0.14387035369873,0.491643734141887
5.111962822,-0.238438606262207,0.0581837892532349,-0.129053592681885,0.277296145072791
5.116962822,-0.0889749526977539,0.0228378772735596,-0.0507344007492065,0.104938507066333
5.121962822,0.104145050048828,-0.0129337310791016,-0.0502715110778809,0.116364503502369
5.126962822,0.204475402832031,-0.0315368175506592,-0.0593709945678711,0.215243295413639
5.131962822,0.386895179748535,-0.0881667137145996,-0.0398210287094116,0.398806925525823
5.136962822,0.567641258239746,-0.163974523544312,-0.0525389909744263,0.593181749550841
5.141962822,0.627674102783203,-0.194391489028931,-0.134595394134521,0.670730013070692
5.146962822,0.655656814575195,-0.197419881820679,-0.148541331291199,0.700660399436663
5.151962822,0.613930702209473,-0.195094585418701,-0.186409950256348,0.670612760040909
5.156962822,0.581501007080078,-0.173432350158691,-0.220226645469666,0.645540065907248
5.161962822,0.580694198608398,-0.147849559783936,-0.223809599876404,0.639653016582107
5.166962822,0.572710037231445,-0.108361482620239,-0.201146364212036,0.61660267392951
5.171962822,0.550783157348633,-0.0655994415283203,-0.180856227874756,0.583416102202229
5.176962822,0.639015197753906,-0.0532405376434326,-0.0724465847015381,0.645308829510292
5.181962822,0.66533088684082,-0.0394928455352783,0.0444626808166504,0.667983385884911
5.186962822,0.776349067687988,-0.0346660614013672,0.227706909179688,0.809796299819441
5.191962822,0.884150505065918,-0.0338864326477051,0.447220683097839,0.991401404737962
5.196962822,0.87120532989502,-0.0194251537322998,0.64641273021698,1.08500022176108
5.201962822,0.808390617370606,-0.00638914108276367,0.834056615829468,1.16154494092373
5.206962822,0.843500137329102,-0.0211780071258545,1.06308794021606,1.35723872560905
5.211962822,0.660746574401856,0.0166656970977783,1.19090175628662,1.36202451305771
5.216962822,0.338188171386719,0.117209434509277,1.15796267986298,1.21201768087736
5.221962822,-0.0583829879760742,0.274326801300049,0.958484172821045,0.998676963159246
5.226962822,-0.396101951599121,0.446872353553772,0.679609537124634,0.904688222197061
5.231962822,-0.656556129455566,0.623633861541748,0.395343542098999,0.988069663873216
5.236962822,-0.805140495300293,0.762228488922119,0.15903627872467,1.12006072355363
5.241962822,-0.888440132141113,0.921246767044067,-0.0819075107574463,1.28247039517743
5.246962822,-0.839031219482422,1.03720545768738,-0.222965002059937,1.35258343212766
5.251962822,-0.706454277038574,1.12697470188141,-0.315834760665894,1.36707762042675
5.256962822,-0.403876304626465,1.13760137557983,-0.338350534439087,1.25368817626836
5.261962822,-0.0937643051147461,1.16867005825043,-0.300171494483948,1.21024145362214
5.266962822,0.103422164916992,1.19666945934296,-0.280843496322632,1.23352624963841
5.271962822,0.23579216003418,1.20856666564941,-0.194280385971069,1.24658581590904
5.276962822,0.27147388458252,1.23178768157959,-0.147516489028931,1.26994491102448
5.281962822,0.293183326721191,1.24522519111633,-0.124096393585205,1.28527901817421
5.286962822,0.191274642944336,1.26807379722595,-0.0755420923233032,1.28464148771442
5.291962822,0.0393447875976563,1.28627490997314,-0.0218255519866943,1.28706158013401
5.296962822,-0.0262842178344727,1.28344261646271,0.0608142614364624,1.28515142463986
5.301962822,-0.0937891006469727,1.25736594200134,0.144501090049744,1.26911231675162
5.306962822,-0.112208366394043,1.21175992488861,0.252621531486511,1.24288795602237
5.311962822,-0.0774669647216797,1.14526927471161,0.409242033958435,1.21865576951824
5.316962822,0.0810394287109375,1.04524040222168,0.564998149871826,1.19093148283221
5.321962822,0.258964538574219,0.928663969039917,0.697715163230896,1.19007808509956
5.326962822,0.604476928710938,0.800436735153198,0.834819912910461,1.30499640279901
5.331962822,0.803247451782227,0.696829199790955,0.896194577217102,1.39066247619948
5.336962822,0.943799018859863,0.614080190658569,0.937086462974548,1.46491709924154
5.341962822,0.969766616821289,0.573641657829285,0.923171639442444,1.45662552448081
5.346962822,1.08139133453369,0.537525653839111,0.901915431022644,1.50724665919566
5.351962822,1.08745670318604,0.528530716896057,0.807164311408997,1.45376099329266
5.356962822,0.982700347900391,0.57210636138916,0.709033250808716,1.3400499293899
5.361962822,0.75700855255127,0.63843560218811,0.596608400344849,1.15611571658684
5.366962822,0.571745872497559,0.702616453170776,0.447721242904663,1.01045412282417
5.371962822,0.363156318664551,0.791990876197815,0.323362588882446,0.929352152660836
5.376962822,0.156484603881836,0.885504364967346,0.224172353744507,0.926746273697192
5.381962822,-0.0575227737426758,0.966891407966614,0.0989813804626465,0.973645303987547
5.386962822,-0.21229362487793,1.01666712760925,0.0534765720367432,1.03997133387506
5.391962822,-0.26640510559082,1.04868280887604,-0.0252512693405151,1.08228690305311
5.396962822,-0.233510971069336,1.05148839950562,-0.0977122783660889,1.08152804737007
5.401962822,-0.208542823791504,1.04385328292847,-0.16083562374115,1.07656299560206
5.406962822,-0.150099754333496,1.02466249465942,-0.206607580184937,1.05600656077627
5.411962822,-0.0663442611694336,0.989279866218567,-0.287790060043335,1.0324240085136
5.416962822,0.0308208465576172,0.94108247756958,-0.323711156845093,0.995678194617626
5.421962822,0.101458549499512,0.892194986343384,-0.398661375045776,0.982464565710237
5.426962822,0.123246192932129,0.845226764678955,-0.47400438785553,0.976871571655257
5.431962822,0.109127998352051,0.798465490341187,-0.539990425109863,0.970075109721122
5.436962822,0.103128433227539,0.74517834186554,-0.600556612014771,0.962597776415519
5.441962822,0.0749177932739258,0.699463129043579,-0.64235520362854,0.952618261566055
5.446962822,0.0614337921142578,0.629371285438538,-0.676784038543701,0.926239148695204
5.451962822,-0.006805419921875,0.566999197006226,-0.682525336742401,0.887341669505803
5.456962822,-0.0195102691650391,0.497690916061401,-0.648281812667847,0.817524438270097
5.461962822,0.00983333587646484,0.409326314926147,-0.572910904884338,0.704181533072879
5.466962822,0.110457420349121,0.332382082939148,-0.48668897151947,0.599620584843306
5.471962822,0.17930793762207,0.273769736289978,-0.389225125312805,0.508524732119622
5.476962822,0.331340789794922,0.169018387794495,-0.254320859909058,0.450591870964685
5.481962822,0.456308364868164,0.0996009111404419,-0.174426317214966,0.49856013226675
5.486962822,0.573057174682617,0.0293742418289185,-0.0624793767929077,0.577201043019395
5.491962822,0.670226097106934,-0.0314102172851563,-0.0034867525100708,0.670970774651296
5.496962822,0.732105255126953,-0.0844874382019043,0.0584123134613037,0.739275476505425
5.501962822,0.714223861694336,-0.0772085189819336,0.0482926368713379,0.720006290800949
5.506962822,0.751126289367676,-0.0992655754089356,0.0801044702529907,0.761879966395647
5.511962822,0.73677921295166,-0.108548045158386,0.0621323585510254,0.747319688436273
5.516962822,0.677731513977051,-0.101146697998047,0.0265368223190308,0.685751312424793
5.521962822,0.590967178344727,-0.0903515815734863,-0.00908088684082031,0.597903066290326
5.526962822,0.469496726989746,-0.0584020614624023,-0.0309176445007324,0.474124327765003
5.531962822,0.438506126403809,-0.0778443813323975,-0.0443402528762817,0.447563882170835
5.536962822,0.413127899169922,-0.0527492761611939,-0.0694993734359741,0.422240820049502
5.541962822,0.372286796569824,-0.06074059009552,-0.029876708984375,0.378390665747863
5.546962822,0.327866554260254,-0.0556477308273315,0.00570690631866455,0.332604443939724
5.551962822,0.293902397155762,-0.0614039897918701,0.0587000846862793,0.305932621599004
5.556962822,0.287814140319824,-0.0610326528549194,0.0856655836105347,0.306431976624311
5.561962822,0.261184692382813,-0.0490753650665283,0.165176033973694,0.312904070268823
5.566962822,0.182849884033203,-0.0141721963882446,0.169241070747376,0.249554545679178
5.571962822,0.0789155960083008,0.0157170295715332,0.177460074424744,0.194850646205583
5.576962822,-0.0323305130004883,0.0459588766098022,0.186583399772644,0.194861092783624
5.581962822,-0.13245964050293,0.064950704574585,0.247338652610779,0.287994026782182
5.586962822,-0.21171760559082,0.100172519683838,0.298194766044617,0.379182010007493
5.591962822,-0.335227966308594,0.140002965927124,0.312535881996155,0.479225726979366
5.596962822,-0.437623023986816,0.166083216667175,0.353676676750183,0.586672598353575
5.601962822,-0.496070861816406,0.171876907348633,0.336982607841492,0.623847136092373
5.606962822,-0.511763572692871,0.161539554595947,0.360027551651001,0.646232790859643
5.611962822,-0.528220176696777,0.15307343006134,0.357763886451721,0.656081571536161
5.616962822,-0.502936363220215,0.143022179603577,0.407199025154114,0.662730243307331
5.621962822,-0.522136688232422,0.0864496231079102,0.374453663825989,0.648317672816751
5.626962822,-0.456414222717285,0.0377330780029297,0.395298361778259,0.604978117537134
5.631962822,-0.399676322937012,0.00398933887481689,0.374114990234375,0.547466075532699
5.636962822,-0.400941848754883,-0.0139502286911011,0.349142193794251,0.53183573258195
5.641962822,-0.429550170898438,-0.0583096742630005,0.322797894477844,0.540473725643406
5.646962822,-0.440146446228027,-0.071232795715332,0.281678080558777,0.527395057219785
5.651962822,-0.41270637512207,-0.0888667106628418,0.240994095802307,0.486109039765775
5.656962822,-0.398035049438477,-0.0962506532669067,0.21717631816864,0.463531705505765
5.661962822,-0.410235404968262,-0.107394814491272,0.189004182815552,0.464272888278933
5.666962822,-0.451416015625,-0.101776242256165,0.164813876152039,0.491221372115256
5.671962822,-0.444202423095703,-0.104738235473633,0.140647768974304,0.477564326108717
5.676962822,-0.396845817565918,-0.0941362380981445,0.146424651145935,0.433345604230666
5.681962822,-0.306607246398926,-0.109962940216064,0.106290698051453,0.342633279553458
5.686962822,-0.235695838928223,-0.111557126045227,0.12978982925415,0.291278081285515
5.691962822,-0.170867919921875,-0.115331768989563,0.129023790359497,0.24319622010924
5.696962822,-0.070500373840332,-0.134806394577026,0.115893840789795,0.191244474595984
5.701962822,0.0395021438598633,-0.144724249839783,0.098254919052124,0.179330858970654
5.706962822,0.100335121154785,-0.160743951797485,0.0824140310287476,0.206634525399375
5.711962822,0.132421493530273,-0.178892970085144,0.0433663129806519,0.226757103077739
5.716962822,0.181716918945313,-0.189490675926209,-0.0025259256362915,0.262553109283186
5.721962822,0.207626342773438,-0.190130710601807,-0.0523084402084351,0.286346919390554
5.726962822,0.207982063293457,-0.191198825836182,-0.127256274223328,0.309851075489728
5.731962822,0.168430328369141,-0.202815055847168,-0.189054131507874,0.324413604882753
5.736962822,0.118828773498535,-0.212793707847595,-0.242131114006042,0.343553366859504
5.741962822,0.110317230224609,-0.23199200630188,-0.274725317955017,0.376117245812906
5.746962822,0.136018753051758,-0.246144652366638,-0.300926566123962,0.411879945214146
5.751962822,0.163634300231934,-0.269898414611816,-0.291001200675964,0.429305296050747
5.756962822,0.203171730041504,-0.295695304870605,-0.284857034683228,0.458102603593452
5.761962822,0.24217414855957,-0.322686016559601,-0.261544466018677,0.48081190835778
5.766962822,0.323430061340332,-0.34267258644104,-0.214926719665527,0.517904432210217
5.771962822,0.373105049133301,-0.359602749347687,-0.213778853416443,0.56055589658412
5.776962822,0.425582885742188,-0.373045086860657,-0.192273497581482,0.597706054294031
5.781962822,0.424418449401855,-0.393145143985748,-0.190679550170898,0.609141047119324
5.786962822,0.421481132507324,-0.400956511497498,-0.20123827457428,0.61555610006362
5.791962822,0.398975372314453,-0.409125208854675,-0.253569602966309,0.625189833396489
5.796962822,0.324955940246582,-0.384993135929108,-0.298925280570984,0.585809184955741
5.801962822,0.206048011779785,-0.377524971961975,-0.380311369895935,0.574123354067238
5.806962822,0.0968122482299805,-0.376786708831787,-0.489431738853455,0.625207375481727
5.811962822,0.0205583572387695,-0.386941909790039,-0.58268141746521,0.699760188824419
5.816962822,-0.0102109909057617,-0.381440460681915,-0.664589703083038,0.766342327438926
5.821962822,-0.0000867843627929688,-0.386189639568329,-0.741503715515137,0.836044380020699
5.826962822,0.00406551361083984,-0.418418169021606,-0.809806168079376,0.911524175448856
5.831962822,-0.000947952270507813,-0.432950496673584,-0.830234467983246,0.936341979733278
5.836962822,0.0209388732910156,-0.437693357467651,-0.847459673881531,0.954044972965841
5.841962822,0.052825927734375,-0.44910192489624,-0.849406540393829,0.96227573410656
5.846962822,-0.0128917694091797,-0.438402712345123,-0.811070859432221,0.922062402947968
5.851962822,-0.00443458557128906,-0.44638603925705,-0.72990483045578,0.855594076133926
5.856962822,0.0529699325561523,-0.46857613325119,-0.6765998005867,0.824716130896931
5.861962822,0.113607406616211,-0.488104343414307,-0.60155862569809,0.782959304849075
5.866962822,0.0271759033203125,-0.453523814678192,-0.523475646972656,0.693144381189789
5.871962822,-0.0510902404785156,-0.437838435173035,-0.424608469009399,0.612049883540084
5.876962822,-0.0268373489379883,-0.437155544757843,-0.334613919258118,0.551173011469016
5.881962822,-0.0365447998046875,-0.417099356651306,-0.219366908073425,0.472683018596388
5.886962822,-0.106203079223633,-0.407866835594177,-0.123972654342651,0.439321828092973
5.891962822,-0.149382591247559,-0.398356556892395,-0.0402002334594727,0.42733963513486
5.896962822,-0.0647621154785156,-0.376039564609528,0.0660444498062134,0.387248957523685
5.901962822,-0.00425434112548828,-0.375259339809418,0.152449131011963,0.405065931767798
5.906962822,-0.0547084808349609,-0.341415107250214,0.201581835746765,0.400240589941825
5.911962822,-0.181280136108398,-0.291093647480011,0.245530724525452,0.421762179476408
5.916962822,-0.150826454162598,-0.256569802761078,0.28751266002655,0.413811808240972
5.921962822,-0.141983985900879,-0.218420743942261,0.334804058074951,0.424217905020577
5.926962822,-0.143008232116699,-0.196464121341705,0.355948448181152,0.430985850336508
5.931962822,-0.134491920471191,-0.183729648590088,0.342312812805176,0.411123731075765
5.936962822,-0.145694732666016,-0.16658341884613,0.303566336631775,0.37567207947507
5.941962822,-0.221583366394043,-0.153875410556793,0.253941297531128,0.37049023310788
5.946962822,-0.295342445373535,-0.130044043064117,0.176854014396667,0.3679890699245
5.951962822,-0.29810619354248,-0.136347711086273,0.139384150505066,0.356210530948864
5.956962822,-0.278238296508789,-0.167898952960968,0.0613381862640381,0.33070981410243
5.961962822,-0.207311630249023,-0.202381670475006,0.0577605962753296,0.295419598305264
5.966962822,-0.144762992858887,-0.221872329711914,0.1072918176651,0.285823702535559
5.971962822,-0.0805912017822266,-0.248464405536652,0.168925046920776,0.311071011347203
5.976962822,-0.0268917083740234,-0.280098378658295,0.221800804138184,0.358292984054424
5.981962822,0.0103378295898438,-0.291740655899048,0.242769837379456,0.379679700492774
5.986962822,0.0304851531982422,-0.298860788345337,0.293872475624085,0.420247721356517
5.991962822,0.0664129257202148,-0.316001534461975,0.342178225517273,0.470482289255601
5.996962822,0.0308122634887695,-0.298884272575378,0.385082602500916,0.488436090725381
6.001962822,-0.0302629470825195,-0.271185517311096,0.440492630004883,0.518161353107336
6.006962822,-0.0759191513061523,-0.248681724071503,0.497594833374023,0.561432930654004
6.011962822,-0.062901496887207,-0.227442860603333,0.560867071151733,0.608488886219298
6.016962822,-0.0646562576293945,-0.210060834884644,0.623721361160278,0.661312575391322
6.021962822,-0.0607528686523438,-0.197606086730957,0.664046764373779,0.695483415933045
6.026962822,-0.0421686172485352,-0.168683230876923,0.708442687988281,0.729467796975159
6.031962822,-0.0581903457641602,-0.156600892543793,0.710871815681458,0.730238792598638
6.036962822,-0.0678091049194336,-0.140822350978851,0.715868949890137,0.732732804412354
6.041962822,-0.0813941955566406,-0.116658210754395,0.677679061889648,0.692447156200647
6.046962822,-0.12753963470459,-0.0957407951354981,0.622801065444946,0.642894878960097
6.051962822,-0.195343017578125,-0.0753855109214783,0.547565579414368,0.586233685088815
6.056962822,-0.274396896362305,-0.0611644983291626,0.472055912017822,0.549428372638419
6.061962822,-0.339193344116211,-0.0614650249481201,0.362075090408325,0.499928439957969
6.066962822,-0.33676815032959,-0.0845672488212585,0.30897867679596,0.464792673526802
6.071962822,-0.330782890319824,-0.109045326709747,0.259284019470215,0.434207791913276
6.076962822,-0.313305854797363,-0.152064681053162,0.21490204334259,0.409227460108589
6.081962822,-0.266282081604004,-0.209661066532135,0.185598492622376,0.386407440749336
6.086962822,-0.175528526306152,-0.271282851696014,0.160872459411621,0.360949577321646
6.091962822,-0.10274600982666,-0.342841804027557,0.112295269966125,0.37510994758995
6.096962822,-0.0271263122558594,-0.392568409442902,0.0869264602661133,0.402991318025002
6.101962822,-0.00329685211181641,-0.450795829296112,0.0613772869110107,0.454966944176358
6.106962822,0.00893115997314453,-0.494010627269745,0.0160101652145386,0.494350676002481
6.111962822,-0.000502586364746094,-0.525784313678742,-0.0146112442016602,0.525987533655314
6.116962822,-0.0242433547973633,-0.560329079627991,-0.0287374258041382,0.561589046697343
6.121962822,-0.0466642379760742,-0.56586217880249,-0.0499876737594605,0.569979231229412
6.126962822,-0.0842800140380859,-0.595481097698212,-0.0582287311553955,0.604227973213831
6.131962822,-0.111120223999023,-0.598049640655518,-0.0565366744995117,0.610907089853482
6.136962822,-0.138020515441895,-0.611744046211243,-0.0224767923355103,0.627523423428515
6.141962822,-0.127883911132813,-0.618544220924377,0.000295639038085938,0.631625945768547
6.146962822,-0.115995407104492,-0.603607892990112,0.0320836305618286,0.615489059447305
6.151962822,-0.0753469467163086,-0.588666021823883,0.0547857284545898,0.595991882219655
6.156962822,-0.0467548370361328,-0.566068351268768,0.0458493232727051,0.569843446517534
6.161962822,-0.0596561431884766,-0.524145424365997,0.0358953475952148,0.528749238564858
6.166962822,-0.0959920883178711,-0.460167407989502,0.00272226333618164,0.470080775094105
6.171962822,-0.123566627502441,-0.391839265823364,-0.0404143333435059,0.412843844586449
6.176962822,-0.182600975036621,-0.342884004116058,-0.137717247009277,0.412163312883134
6.181962822,-0.225298881530762,-0.271517097949982,-0.220988273620605,0.416313508759934
6.186962822,-0.259856224060059,-0.213071584701538,-0.311358332633972,0.458114362021737
6.191962822,-0.252934455871582,-0.172251582145691,-0.409309506416321,0.511058429694217
6.196962822,-0.214500427246094,-0.147325277328491,-0.496155142784119,0.560254492476234
6.201962822,-0.154031753540039,-0.132811725139618,-0.561260342597961,0.596973958901359
6.206962822,-0.0811290740966797,-0.131563901901245,-0.619832873344421,0.638814353177562
6.211962822,0.0141582489013672,-0.149609208106995,-0.66498076915741,0.681749803455443
6.216962822,0.0891265869140625,-0.164568185806274,-0.696822762489319,0.721517982172145
6.221962822,0.158056259155273,-0.17105108499527,-0.727323710918427,0.763701535418365
6.226962822,0.179484367370605,-0.177740454673767,-0.736441135406494,0.778557546541597
6.231962822,0.185541152954102,-0.176682889461517,-0.709096610546112,0.753963106495267
6.236962822,0.17042064666748,-0.176976203918457,-0.664122402667999,0.708111812702956
6.241962822,0.142734527587891,-0.181790173053741,-0.597556710243225,0.640698707928581
6.246962822,0.0871238708496094,-0.174758434295654,-0.548242568969727,0.58198023476731
6.251962822,0.0284814834594727,-0.173951685428619,-0.487390518188477,0.518285540010081
6.256962822,-0.037811279296875,-0.181470453739166,-0.409660339355469,0.449647430842436
6.261962822,-0.0849142074584961,-0.197350263595581,-0.340349793434143,0.402486684326592
6.266962822,-0.116257667541504,-0.193506479263306,-0.272919297218323,0.354182926710498
6.271962822,-0.121526718139648,-0.219370782375336,-0.212706565856934,0.328840944136235
6.276962822,-0.114744186401367,-0.247214794158936,-0.151953816413879,0.31204381917721
6.281962822,-0.100396156311035,-0.281498670578003,-0.111121416091919,0.318855545433173
6.286962822,-0.0488901138305664,-0.31604927778244,-0.0858888626098633,0.331140885330676
6.291962822,-0.0179719924926758,-0.335205137729645,-0.106338858604431,0.352127007944293
6.296962822,-0.0100688934326172,-0.346684098243713,-0.110589623451233,0.364034766753259
6.301962822,0.0146923065185547,-0.363817393779755,-0.11957859992981,0.383246658757388
6.306962822,0.030421257019043,-0.381066560745239,-0.152196645736694,0.411462022026729
6.311962822,0.0376043319702148,-0.382560014724731,-0.16392970085144,0.417898549256103
6.316962822,0.0364751815795898,-0.368519604206085,-0.186884641647339,0.41480478160109
6.321962822,0.0133428573608398,-0.368314146995544,-0.212890982627869,0.42562414546624
6.326962822,-0.0118856430053711,-0.342200458049774,-0.222936868667603,0.408586917816078
6.331962822,-0.0567703247070313,-0.324218094348907,-0.208388566970825,0.389571607428895
6.336962822,-0.109511375427246,-0.297580599784851,-0.192850947380066,0.371131301053506
6.341962822,-0.149467468261719,-0.274112582206726,-0.136821150779724,0.340878657432957
6.346962822,-0.168811798095703,-0.254899859428406,-0.0638769865036011,0.312332564612957
6.351962822,-0.18979549407959,-0.224956870079041,-0.015578031539917,0.294738185573795
6.356962822,-0.176942825317383,-0.227103173732758,0.0534120798110962,0.292809605751819
6.361962822,-0.147900581359863,-0.199950754642487,0.1029452085495,0.269170210483971
6.366962822,-0.101641654968262,-0.178698182106018,0.161841630935669,0.261642465621695
6.371962822,-0.0439796447753906,-0.166896343231201,0.200926065444946,0.264877107945748
6.376962822,0.0155305862426758,-0.150705635547638,0.228331804275513,0.274023357651441
6.381962822,0.0444717407226563,-0.13238787651062,0.239179491996765,0.276967714655923
6.386962822,0.090606689453125,-0.100287735462189,0.245607137680054,0.280339201927197
6.391962822,0.152222633361816,-0.0799562931060791,0.254258513450623,0.306939946206081
6.396962822,0.188802719116211,-0.0463061928749085,0.249325275421143,0.316154745667484
6.401962822,0.2156982421875,-0.0164883732795715,0.215808033943176,0.305566205020455
6.406962822,0.223246574401855,0.0138793587684631,0.180328607559204,0.287315290728197
6.411962822,0.2352294921875,0.0467758178710938,0.154511451721191,0.285297528635088
6.416962822,0.202207565307617,0.0806218385696411,0.139777064323425,0.258699455030076
6.421962822,0.186765670776367,0.145623505115509,0.126310229301453,0.26840621276129
6.426962822,0.150797843933105,0.184341013431549,0.142528533935547,0.277553565917752
6.431962822,0.118721008300781,0.193762123584747,0.0970640182495117,0.247102938037504
6.436962822,-0.0104713439941406,0.27134907245636,0.128460168838501,0.300403034515277
6.441962822,0.0370464324951172,0.307123005390167,0.168184161186218,0.35211204278527
6.446962822,0.013031005859375,0.345526218414307,0.200418472290039,0.399657026411987
6.451962822,-0.00524806976318359,0.355023503303528,0.227211713790894,0.421538127596952
6.456962822,-0.015141487121582,0.367877006530762,0.258638381958008,0.449951740954676
6.461962822,-0.0300760269165039,0.37666654586792,0.23971164226532,0.447486229518506
6.466962822,-0.0276250839233398,0.384985566139221,0.260543465614319,0.465682218762568
6.471962822,-0.026677131652832,0.395372271537781,0.248919486999512,0.467965611409928
6.476962822,-0.0111608505249023,0.394023180007935,0.222497701644897,0.452641202505104
6.481962822,0.0122480392456055,0.386808931827545,0.203243851661682,0.437126100164706
6.486962822,0.0437030792236328,0.389334261417389,0.178936362266541,0.43070796137085
6.491962822,0.050908088684082,0.401003360748291,0.181226015090942,0.442987807248273
6.496962822,0.0560092926025391,0.416254997253418,0.174078106880188,0.454652010763474
6.501962822,0.0307483673095703,0.422365427017212,0.1628258228302,0.453707245492033
6.506962822,-0.000498771667480469,0.45842456817627,0.16966986656189,0.488816117880645
6.511962822,-0.0281314849853516,0.489884257316589,0.192742705345154,0.527188501845285
6.516962822,-0.063755989074707,0.502604722976685,0.219599843025208,0.552177892311943
6.521962822,-0.0926923751831055,0.517621994018555,0.243061542510986,0.579312798543801
6.526962822,-0.110713958740234,0.531907677650452,0.270574688911438,0.606954710405111
6.531962822,-0.109625816345215,0.551875531673431,0.29367470741272,0.634688313933015
6.536962822,-0.0870447158813477,0.550168752670288,0.308956861495972,0.636959010645965
6.541962822,-0.0412721633911133,0.549533486366272,0.32178270816803,0.638149320602008
6.546962822,0.01470947265625,0.524558544158936,0.334437489509583,0.622275235908869
6.551962822,0.0521011352539063,0.514856934547424,0.350790977478027,0.625177175868015
6.556962822,0.0882158279418945,0.497054845094681,0.326550006866455,0.601232449486929
6.561962822,0.129554748535156,0.474625021219254,0.29640543460846,0.574377511137766
6.566962822,0.147988319396973,0.454730451107025,0.258959054946899,0.543819931577476
6.571962822,0.161948204040527,0.437018394470215,0.199521422386169,0.506972480405275
6.576962822,0.18278694152832,0.414777904748917,0.193584203720093,0.492875866918965
6.581962822,0.185026168823242,0.379393100738525,0.167795300483704,0.454234598970418
6.586962822,0.200794219970703,0.348687291145325,0.144691109657288,0.427594039941818
6.591962822,0.209255218505859,0.335521101951599,0.165551662445068,0.428683460451971
6.596962822,0.246966361999512,0.306887209415436,0.188466787338257,0.436682806155304
6.601962822,0.266929626464844,0.274277627468109,0.205734729766846,0.434518608860924
6.606962822,0.257001876831055,0.235823214054108,0.202538251876831,0.403341414256975
6.611962822,0.22188663482666,0.222976624965668,0.136142373085022,0.34276376667466
6.616962822,0.209138870239258,0.191739082336426,0.0661523342132568,0.291340134657122
6.621962822,0.201908111572266,0.150155246257782,0.0454602241516113,0.255695356777022
6.626962822,0.18968677520752,0.124368488788605,0.00636208057403564,0.226912030887346
6.631962822,0.196871757507324,0.110295176506042,-0.0128676891326904,0.226028963383318
6.636962822,0.198451995849609,0.0958179831504822,-0.0173957347869873,0.221058571741741
6.641962822,0.164493560791016,0.0860714316368103,-0.0470012426376343,0.191508589089888
6.646962822,0.10697078704834,0.0998100638389587,-0.052587628364563,0.155467864146542
6.651962822,0.0554313659667969,0.0984269380569458,-0.0939661264419556,0.146935807027138
6.656962822,0.0282878875732422,0.109537482261658,-0.119667053222656,0.164678074528983
6.661962822,0.0132083892822266,0.109322249889374,-0.136651277542114,0.175497542781081
6.666962822,-0.00148200988769531,0.115244626998901,-0.163113236427307,0.199723429529972
6.671962822,-0.00836563110351563,0.124866485595703,-0.17676854133606,0.216584256618204
6.676962822,0.021392822265625,0.121066987514496,-0.190116882324219,0.226405161723412
6.681962822,0.0292043685913086,0.107413053512573,-0.196500062942505,0.225837848790056
6.686962822,0.0350608825683594,0.117223143577576,-0.215394854545593,0.247720556759827
6.691962822,0.00924873352050781,0.13306850194931,-0.238818645477295,0.273545445420641
6.696962822,-0.0502080917358398,0.148986041545868,-0.29849910736084,0.337371323835444
6.701962822,-0.0888223648071289,0.160849392414093,-0.326470971107483,0.374626793630376
6.706962822,-0.0820722579956055,0.164462745189667,-0.3525630235672,0.397598460352482
6.711962822,-0.101340293884277,0.164912581443787,-0.3617262840271,0.410258356696191
6.716962822,-0.0959510803222656,0.159166038036346,-0.371914863586426,0.415765683090497
6.721962822,-0.0877094268798828,0.137959480285645,-0.398203611373901,0.430455430765486
6.726962822,-0.0761966705322266,0.125848293304443,-0.405388236045837,0.431257866539491
6.731962822,-0.0546512603759766,0.100730419158936,-0.411074042320251,0.426749629026353
6.736962822,-0.032135009765625,0.0617516040802002,-0.407953262329102,0.413849953128028
6.741962822,-0.0114679336547852,0.0452889204025269,-0.376606345176697,0.379493002624404
6.746962822,0.0323696136474609,0.0100679397583008,-0.353628516197205,0.355249606286199
6.751962822,0.0758066177368164,-0.0301916599273682,-0.315211296081543,0.325601506137904
6.756962822,0.0862207412719727,-0.0564380884170532,-0.277126908302307,0.295666361554464
6.761962822,0.110032081604004,-0.0873387455940247,-0.22375500202179,0.264199576823694
6.766962822,0.117167472839355,-0.122539818286896,-0.226518273353577,0.282939484555324
6.771962822,0.137146949768066,-0.125990211963654,-0.201154470443726,0.274127598612082
6.776962822,0.129595756530762,-0.135308742523193,-0.19269323348999,0.268764205479108
6.781962822,0.154614448547363,-0.140016734600067,-0.182669043540955,0.277269351237814
6.786962822,0.165099143981934,-0.140719532966614,-0.149803161621094,0.263629857060206
6.791962822,0.179594039916992,-0.133210718631744,-0.113664627075195,0.250836126146604
6.796962822,0.178071975708008,-0.12183153629303,-0.0963184833526611,0.236283308770277
6.801962822,0.177748680114746,-0.116346895694733,-0.0498151779174805,0.21820344949447
