Time (s),Linear Acceleration x (m/s^2),Linear Acceleration y (m/s^2),Linear Acceleration z (m/s^2),Absolute acceleration (m/s^2)
0.012705157,0,0,0,0
0.017705157,0.0900411605834961,-0.00821781158447266,-0.00663608312606812,0.0906585937775174
0.022705157,0.196681022644043,-0.00145953893661499,-0.0356505215167999,0.199891256953959
0.027705157,0.303243637084961,-0.0156857967376709,-0.0411917865276337,0.306430270908651
0.032705157,0.383310317993164,-0.0305671095848084,-0.0157755017280579,0.384850639239643
0.037705157,0.422075271606445,-0.0564874410629272,0.0659721046686173,0.430918419766316
0.042705157,0.450742721557617,-0.0820103287696838,0.0697144567966461,0.463416443977262
0.047705157,0.286016464233398,0.0169674158096313,-0.862149953842163,0.908512990508048
0.052705157,0.637752532958984,-0.0955569744110107,0.440579622983933,0.781005654808498
0.057705157,0.588753700256348,-0.0991454720497131,-0.169175565242767,0.620549044047859
0.062705157,0.592955589294434,-0.0999953150749207,0.159818485379219,0.622203617942993
0.067705157,0.542807579040527,-0.0859789252281189,0.30511075258255,0.628589703056541
0.072705157,0.361832618713379,-0.0619569420814514,0.0912217944860458,0.378263033385923
0.077705157,0.21635913848877,-0.0485327243804932,0.240174487233162,0.326879926672024
0.082705157,0.111690521240234,-0.0264667272567749,0.217917159199715,0.246298900647716
0.087705157,0.0127506256103516,0.0000486969947814941,0.111211813986301,0.111940378751264
0.092705157,-0.0501537322998047,0.0100887417793274,0.143481224775314,0.152328728207501
0.097705157,-0.123719215393066,0.026206374168396,0.127942800521851,0.17989602138431
0.102705157,-0.202350616455078,0.0273453593254089,0.115851178765297,0.234765918049649
0.107705157,-0.260211944580078,0.040668785572052,0.165176391601563,0.310881724397823
0.112705157,-0.27837085723877,0.0431340336799622,0.210225954651833,0.351490869057257
0.117705157,-0.270797729492188,0.0425841808319092,0.211402654647827,0.346173229969328
0.122705157,-0.22792911529541,0.0535441040992737,0.232588142156601,0.33002408481049
0.127705157,-0.172697067260742,0.0425521731376648,0.270778000354767,0.323968655822327
0.132705157,-0.0937719345092773,0.0293548703193665,0.283787846565247,0.300317208916204
0.137705157,-0.0305328369140625,0.0286468267440796,0.324895977973938,0.327582495436138
0.142705157,0.026890754699707,0.0146487355232239,0.360153138637543,0.361452599120856
0.147705157,0.0801095962524414,0.0122561454772949,0.396721303462982,0.404914254052704
0.152705157,0.127392768859863,0.00634515285491943,0.413973778486252,0.433178332556834
0.157705157,0.175213813781738,-0.00346708297729492,0.447290927171707,0.480396788846927
0.162705157,0.204081535339355,-0.0176857709884644,0.484543740749359,0.526065296575727
0.167705157,0.223042488098145,-0.0300906896591187,0.480154812335968,0.530284871470572
0.172705157,0.239818572998047,-0.036922037601471,0.482039391994476,0.539664859194916
0.177705157,0.219656944274902,-0.0571293830871582,0.455536067485809,0.508946017137911
0.182705157,0.178019523620605,-0.0421784520149231,0.399375289678574,0.439284184338939
0.187705157,0.133806228637695,-0.0463032722473145,0.350375771522522,0.377903798754464
0.192705157,0.0649528503417969,-0.0332374572753906,0.297754406929016,0.306563677201503
0.197705157,-0.0296115875244141,-0.0309544205665588,0.243715390563011,0.247451437388447
0.202705157,-0.125785827636719,-0.00567537546157837,0.204965814948082,0.240552010214456
0.207705157,-0.240488052368164,0.000409066677093506,0.178033784031868,0.299216809227164
0.212705157,-0.37677001953125,0.0161956548690796,0.144908636808395,0.404000569152921
0.217705157,-0.459193229675293,0.0326395034790039,0.0999842956662178,0.471084513380404
0.222705157,-0.570947647094727,0.0513922572135925,0.0477623902261257,0.575242232233192
0.227705157,-0.668154716491699,0.107800155878067,0.377207487821579,0.774814227828907
0.232705157,-0.706685066223145,0.153594791889191,0.504902005195618,0.881998400094269
0.237705157,-0.74702262878418,0.11315992474556,-0.392652601003647,0.851483435868823
0.242705157,-0.651094436645508,0.0540876984596252,-0.233057230710983,0.693660664404479
0.247705157,-0.611567497253418,0.0514832139015198,0.0824892967939377,0.619249391679958
0.252705157,-0.614627838134766,0.0433288812637329,-0.0123584670946002,0.616277131711628
0.257705157,-0.562424659729004,0.030067503452301,-0.114840745925903,0.574816448581595
0.262705157,-0.444879531860352,0.0330955386161804,0.0485865995287895,0.448746888789607
0.267705157,-0.336589813232422,0.0119008421897888,-0.0636571198701859,0.342763127140056
0.272705157,-0.219137191772461,0.000451147556304932,-0.16685976088047,0.27543328076528
0.277705157,-0.0930051803588867,-0.0121937990188599,-0.116838946938515,0.149833213373412
0.282705157,0.00566768646240234,-0.00314098596572876,-0.137782141566277,0.13793443006466
0.287705157,0.0901823043823242,-0.0265622138977051,-0.112554214894772,0.146652141209844
0.292705157,0.186498641967773,-0.0362218022346497,-0.0612234473228455,0.199604791813832
0.297705157,0.253018379211426,-0.0434744954109192,-0.0604016184806824,0.263736018558514
0.302705157,0.300006866455078,-0.0465928316116333,-0.0637497901916504,0.310224189300681
0.307705157,0.358669281005859,-0.0458553433418274,-0.0724167451262474,0.368768966461302
0.312705157,0.378139495849609,-0.0453450679779053,-0.0939711853861809,0.392270617296531
0.317705157,0.379828453063965,-0.0458027124404907,-0.0788049846887589,0.390612042614749
0.322705157,0.354616165161133,-0.0447513461112976,-0.0606111586093903,0.36253140570209
0.327705157,0.298435211181641,-0.0285974740982056,-0.0487058497965336,0.303732860590076
0.332705157,0.242489814758301,-0.0158636569976807,-0.0445652976632118,0.247060785295169
0.337705157,0.179222106933594,-0.0177278518676758,-0.0102095808833838,0.180385908228368
0.342705157,0.103730201721191,-0.0138731002807617,-0.0116991465911269,0.105305686890499
0.347705157,0.02642822265625,-0.00228190422058105,-0.0167414918541908,0.031367747594371
0.352705157,-0.0409145355224609,0.0081976056098938,0.00141085870563984,0.0417515326310467
0.357705157,-0.0946207046508789,0.0155808329582214,0.0194085408002138,0.097839315003195
0.362705157,-0.159454345703125,0.0232556462287903,0.0331334620714188,0.164512430393477
0.367705157,-0.195513725280762,0.0231982469558716,0.0453072376549244,0.202030990738814
0.372705157,-0.240218162536621,0.0194240808486938,0.0592788606882095,0.248185502908166
0.377705157,-0.240824699401855,0.0239179134368897,0.0677294656634331,0.251308342368937
0.382705157,-0.236806869506836,0.0177609920501709,0.074479840695858,0.24887786754614
0.387705157,-0.234407424926758,0.0138593912124634,0.099678635597229,0.25509753816942
0.392705157,-0.20884895324707,0.0128452777862549,0.115692242980003,0.239097431018293
0.397705157,-0.188034057617188,-0.00380760431289673,0.120799481868744,0.223525881039186
0.402705157,-0.15788745880127,-0.0131027102470398,0.117423310875893,0.197201330116196
0.407705157,-0.111567497253418,-0.00335103273391724,0.121733628213406,0.165159353661168
0.412705157,-0.0767822265625,-0.00724446773529053,0.120487436652184,0.143056684638211
0.417705157,-0.0389614105224609,-0.0161166787147522,0.135390430688858,0.14180376428293
0.422705157,-0.0168142318725586,-0.0176605582237244,0.121680870652199,0.124100153073696
0.427705157,-0.0148458480834961,-0.0310039520263672,0.124223738908768,0.128892131470642
0.432705157,-0.0102643966674805,-0.0324935913085938,0.131676763296127,0.136014562849798
0.437705157,-0.0180978775024414,-0.00240159034729004,0.118486046791077,0.119884294594692
0.442705157,-0.109936714172363,0.0524708032608032,-0.0553241483867168,0.133790985169275
0.447705157,-0.0749349594116211,0.0417336821556091,0.342759907245636,0.35332888699245
0.452705157,-0.103198051452637,0.0237452983856201,-0.045886904001236,0.115409206642546
0.457705157,-0.0761194229125977,0.00202322006225586,-0.0380048118531704,0.0851036173612032
0.462705157,-0.075129508972168,-0.000552356243133545,0.090895339846611,0.117926718862391
0.467705157,-0.117226600646973,-0.00128602981567383,0.00689125433564186,0.117436021553228
0.472705157,-0.11639404296875,0.0042654275894165,0.0203683581203222,0.118239744264141
0.477705157,-0.120870590209961,0.00869929790496826,0.0405943542718887,0.127801717361291
0.482705157,-0.143342018127441,0.0294382572174072,-0.0362918935716152,0.150766862034929
0.487705157,-0.153754234313965,0.0153635740280151,-0.0500237941741943,0.1624154671205
0.492705157,-0.164754867553711,0.0229203104972839,-0.0530918464064598,0.174608851925611
0.497705157,-0.171015739440918,0.016727089881897,-0.0592552572488785,0.18176183368373
0.502705157,-0.154793739318848,0.0182624459266663,-0.0432897210121155,0.161767174076951
0.507705157,-0.142494201660156,0.0178714990615845,-0.0515530556440353,0.152583437933842
0.512705157,-0.121672630310059,0.00427156686782837,-0.0398082286119461,0.128090477067171
0.517705157,-0.0718202590942383,0.00478225946426392,-0.0182741805911064,0.0742628123506202
0.522705157,-0.0326213836669922,-0.0222824215888977,-0.0205301754176617,0.0445213329415735
0.527705157,-0.000841140747070313,-0.0181124806404114,-0.00585387460887432,0.0190535382709376
0.532705157,0.0343523025512695,-0.00746935606002808,-0.0168788693845272,0.0389970281204269
0.537705157,0.065791130065918,-0.0178521275520325,-0.0154154039919376,0.0698913866919181
0.542705157,0.108005523681641,-0.0239663124084473,-0.0102588012814522,0.111107246748072
0.547705157,0.111213684082031,-0.0205729603767395,-0.00648102164268494,0.113286070932369
0.552705157,0.130071640014648,-0.0317751169204712,-0.00251757353544235,0.133920229121355
0.557705157,0.119362831115723,-0.0290518403053284,0.00153398513793945,0.122857022540391
0.562705157,0.0865135192871094,-0.0233027338981628,-0.00032632052898407,0.0895975050526368
0.567705157,0.0589418411254883,-0.00616455078125,0.0171802267432213,0.0617033427987934
0.572705157,0.0317001342773438,-0.00873446464538574,0.00623295456171036,0.0334669853499156
0.577705157,0.0232057571411133,-0.012704610824585,0.0300342664122581,0.0400246356587913
0.582705157,-0.000922203063964844,-0.0125856995582581,0.0143873281776905,0.0191375417427237
0.587705157,-0.0212192535400391,-0.00669515132904053,0.0309843048453331,0.0381458899340905
0.592705157,-0.0387992858886719,0.00387340784072876,0.0237925350666046,0.0456779224425446
0.597705157,-0.0648441314697266,-0.00930017232894898,0.0128881148993969,0.0667634488104935
0.602705157,-0.0961589813232422,0.00650453567504883,0.0271075926721096,0.10011833125831
0.607705157,-0.103906631469727,-0.00797450542449951,0.0349371656775475,0.109912630510471
0.612705157,-0.128875732421875,-0.00672882795333862,0.0410522110760212,0.135423467564269
0.617705157,-0.137760162353516,-0.00419020652770996,0.0167171992361546,0.13883401929179
0.622705157,-0.137004852294922,0.00238066911697388,0.0143767334520817,0.137777674543266
0.627705157,-0.142764091491699,-0.00351828336715698,0.0143842063844204,0.143530030065528
0.632705157,-0.122013092041016,-0.0100720524787903,0.0279314294457436,0.125573905017832
0.637705157,-0.0976886749267578,-0.022137463092804,0.0222909115254879,0.102615930623701
0.642705157,-0.07855224609375,-0.0236873030662537,0.0148357674479485,0.0833765176095477
0.647705157,-0.0751819610595703,-0.0317707061767578,0.0092928372323513,0.0821465876562113
0.652705157,-0.0654773712158203,-0.0171955823898315,0.00251546129584312,0.0677443853067596
0.657705157,-0.049494743347168,-0.0247653126716614,0.0176610946655273,0.0580944454789948
0.662705157,-0.0382833480834961,-0.0208246111869812,0.0138533189892769,0.0457295705051964
0.667705157,-0.0415058135986328,-0.0192116498947144,0.00473173335194588,0.0459805323444112
0.672705157,-0.0378837585449219,-0.0133140087127686,0.0219997577369213,0.0457868030110953
0.677705157,-0.0294942855834961,-0.0103361010551453,0.0167907066643238,0.0354778197947727
0.682705157,-0.029810905456543,-0.0101501941680908,0.0112599041312933,0.0334440124212811
0.687705157,-0.0184526443481445,-0.0143880844116211,0.0130854267627001,0.0268094283795278
0.692705157,-0.012415885925293,-0.00935089588165283,-0.00102183222770691,0.015576829529817
0.697705157,-0.01190185546875,-0.00242704153060913,-0.00329931452870369,0.012586904724738
0.702705157,-0.0221853256225586,0.00451672077178955,-0.00535750016570091,0.0232656882024744
0.707705157,-0.030705451965332,0.0102620124816895,-0.0211821049451828,0.038688696675882
0.712705157,-0.0322761535644531,0.00648719072341919,-0.00341358780860901,0.0330981315805781
0.717705157,-0.030970573425293,-0.000107705593109131,-0.00972739327698946,0.0324624428956212
0.722705157,-0.024806022644043,-0.0038406252861023,-0.0298627763986588,0.039011210904576
0.727705157,-0.0148754119873047,0.00321006774902344,0.00268428958952427,0.0154527611560458
0.732705157,-0.0157737731933594,-0.00446176528930664,0.0130031276494265,0.020923685118059
0.737705157,-0.0117378234863281,-0.0124761462211609,0.00520380213856697,0.0179028009379912
0.742705157,-0.0178327560424805,0.0011637806892395,0.016354052349925,0.0242242977571561
0.747705157,-0.0158729553222656,-0.0135360360145569,0.018695380538702,0.0280123586143134
0.752705157,-0.0122232437133789,-0.004444420337677,0.0261551477015018,0.0292104828837524
0.757705157,-0.0172805786132813,-0.00442397594451904,0.0171431973576546,0.0247402339522279
0.762705157,-0.0152101516723633,-0.0021701455116272,0.0207908172160387,0.025851814751554
0.767705157,-0.019989013671875,0.000221729278564453,0.0277841743081808,0.0342282072775475
0.772705157,-0.0276451110839844,-0.0115875005722046,0.0362380966544151,0.0470289483774772
0.777705157,-0.043238639831543,0.000137686729431152,0.0462850332260132,0.0633395866173004
0.782705157,-0.0461463928222656,-0.00454270839691162,0.0208067912608385,0.0508236985338368
0.787705157,-0.0410041809082031,-0.00610977411270142,0.0176856517791748,0.0450716592829143
0.792705157,-0.0421876907348633,-0.00444436073303223,0.0273813381791115,0.0504905067546827
0.797705157,-0.0339317321777344,-0.0061296820640564,0.0242135748267174,0.0421335099021782
0.802705157,-0.0361175537109375,-0.00918179750442505,0.0230946727097034,0.0438422969179654
0.807705157,-0.0459699630737305,-0.0138692855834961,0.0280683115124702,0.0556185643356405
0.812705157,-0.040034294128418,-0.011108934879303,0.015775628387928,0.0444412375114294
0.817705157,-0.0358333587646484,0.00058978796005249,0.0141693837940693,0.0385376294976412
0.822705157,-0.0355329513549805,-0.00438284873962402,0.0175514779984951,0.039872978005179
0.827705157,-0.0352344512939453,-0.00219738483428955,0.00401978194713593,0.0355310245419111
0.832705157,-0.0390501022338867,-0.00747793912887573,-0.00412679836153984,0.0399732475889686
0.837705157,-0.0395336151123047,0.000974476337432861,-0.004841398447752,0.0398408768341004
0.842705157,-0.0447568893432617,0.00457638502120972,0.00451995432376862,0.0452167273322195
0.847705157,-0.0445709228515625,0.00257682800292969,-0.00260783173143864,0.0447214489114129
0.852705157,-0.0356864929199219,0.00555378198623657,-0.0247612074017525,0.0437891272265945
0.857705157,-0.0298328399658203,-0.00466352701187134,-0.0195492804050446,0.0359711160373397
0.862705157,-0.0198154449462891,-0.000184357166290283,-0.00562369823455811,0.0205988307390868
0.867705157,-0.028071403503418,-0.00829106569290161,-0.00435738638043404,0.0295927741356587
0.872705157,-0.0278348922729492,-0.00262683629989624,-0.0031703133136034,0.0281377394845349
0.877705157,-0.0219306945800781,-0.00264352560043335,-0.00854680687189102,0.023685259130316
0.882705157,-0.0239629745483398,-0.00827765464782715,-0.00538031384348869,0.0259170116473237
0.887705157,-0.03546142578125,-0.00816726684570313,0.00450625643134117,0.0366677421338297
0.892705157,-0.0234670639038086,-0.0166876912117004,-0.00357282906770706,0.0290163270209989
0.897705157,-0.0179758071899414,0.00117522478103638,-0.0132110007107258,0.0223392331380177
0.902705157,-0.0265684127807617,-0.00319844484329224,-0.00112200155854225,0.0267837543037173
0.907705157,-0.0223684310913086,-0.00316566228866577,-0.00252960994839668,0.0227325109414585
0.912705157,-0.0110769271850586,0.00243818759918213,0.00322964787483215,0.0117929512857174
0.917705157,-0.0251169204711914,-0.000914871692657471,0.0197958536446095,0.0319933197041035
0.922705157,-0.017369270324707,0.0100867748260498,0.00246750563383102,0.0202366786320574
0.927705157,-0.0290403366088867,-0.0170167684555054,0.0148531533777714,0.0367903210680381
0.932705157,-0.0172719955444336,-0.0100564956665039,0.00955319404602051,0.0221521658457648
0.937705157,-0.0205936431884766,-0.00306487083435059,0.0126904770731926,0.0243831864478531
0.942705157,-0.026219367980957,-0.000159084796905518,0.0151634104549885,0.0302887698977673
0.947705157,-0.0148744583129883,-0.0057404637336731,0.0266306288540363,0.031038569991929
0.952705157,-0.0241308212280273,-0.00321656465530396,0.0264452081173658,0.0359442881928625
0.957705157,-0.0204553604125977,-0.0118317008018494,0.0120613891631365,0.0265308880744384
0.962705157,-0.0258350372314453,-0.00613754987716675,0.0108997616916895,0.0287040671714044
0.967705157,-0.0224065780639648,-0.00268220901489258,0.00992599874734879,0.0246530816911089
0.972705157,-0.0205526351928711,-0.0176125764846802,0.0246803238987923,0.0366296608167377
0.977705157,-0.0238723754882813,-0.00712490081787109,0.0163499005138874,0.0297988887365285
0.982705157,-0.0236711502075195,-0.00233709812164307,0.0171786490827799,0.0293409502928319
0.987705157,-0.0227985382080078,-0.0104745626449585,0.0172547921538353,0.030450248920119
0.992705157,-0.0185394287109375,0.00221496820449829,0.0215809848159552,0.0285369130548726
0.997705157,-0.0160894393920898,0.00973153114318848,0.0266294591128826,0.0325990927939301
1.002705157,-0.022796630859375,0.00723820924758911,0.0214472711086273,0.0321257449665755
1.007705157,-0.0158252716064453,0.00325274467468262,0.0212593860924244,0.0267017053081485
1.012705157,-0.0178918838500977,0.00241875648498535,0.0210210457444191,0.0277101832333892
1.017705157,-0.0138034820556641,0.00240123271942139,0.0176268965005875,0.0225168718004141
1.022705157,-0.0160694122314453,-0.000746309757232666,0.0190079137682915,0.0249014813523346
1.027705157,-0.0223407745361328,-0.00223571062088013,0.0108765698969364,0.0249481137879716
1.032705157,-0.018763542175293,-0.000668585300445557,0.0153121426701546,0.0242276543317577
1.037705157,-0.00841331481933594,-0.0101839900016785,-0.0050475224852562,0.0141412517777851
1.042705157,-0.0265169143676758,0.00272548198699951,0.00505535304546356,0.027131745134775
1.047705157,-0.0207386016845703,0.00742024183273315,-0.0113136228173971,0.0247618183892426
1.052705157,-0.0200653076171875,0.00402933359146118,0.00349985063076019,0.0207629731349167
1.057705157,-0.0235214233398438,-0.00208353996276855,0.0143216922879219,0.0276171932806091
1.062705157,-0.0309743881225586,0.00122421979904175,-0.00129424408078194,0.0310255781803322
1.067705157,-0.030940055847168,-0.00551581382751465,-0.0101960841566324,0.0330404508161557
1.072705157,-0.0300407409667969,-0.00229763984680176,-0.000625919550657272,0.0301349803713839
1.077705157,-0.0297870635986328,-0.0104091763496399,0.000862974673509598,0.031565247272816
1.082705157,-0.0331096649169922,-0.00297451019287109,-0.00343075208365917,0.0334195703392867
1.087705157,-0.0283794403076172,0.0133267045021057,0.0057733841240406,0.03187986275541
1.092705157,-0.0297393798828125,-0.00200438499450684,-0.00330198928713799,0.0299891881896261
1.097705157,-0.0293169021606445,0.00121134519577026,-0.00182273983955383,0.0293984776817239
1.102705157,-0.0193157196044922,-0.00166749954223633,0.00740869343280792,0.0207549106705872
1.107705157,-0.0236263275146484,0.0050203800201416,-0.00392224825918675,0.0244702186092148
1.112705157,-0.0234270095825195,0.00292134284973145,0.00340665504336357,0.0238529729931012
1.117705157,-0.023228645324707,-0.000580012798309326,0.00345570221543312,0.0234914507059267
1.122705157,-0.0230321884155273,-0.0133395791053772,0.00698113068938255,0.0275165815394865
1.127705157,-0.0271520614624023,0.000839948654174805,-0.0176410395652056,0.0323905268919923
1.132705157,-0.0226154327392578,-0.000991940498352051,-0.00506414286792278,0.0231967085364044
1.137705157,-0.0200653076171875,0.00190871953964233,0.00147420167922974,0.0202097266345792
1.142705157,-0.0107765197753906,-0.00794816017150879,-0.00751511938869953,0.0153552482235798
1.147705157,-0.0135183334350586,0.000353336334228516,0.00113550946116447,0.0135705404152857
1.152705157,-0.0137062072753906,-0.00522100925445557,0.00904366374015808,0.0172309868944333
1.157705157,-0.012451171875,0.00689250230789185,0.00913206860423088,0.0169095519194763
1.162705157,-0.0128202438354492,-0.0102152228355408,-0.00887438654899597,0.0186403907201842
1.167705157,-0.0169868469238281,-0.00416141748428345,0.00625587627291679,0.0185743466058463
1.172705157,-0.0147600173950195,-0.0069006085395813,0.0257639400660992,0.030483718924163
1.177705157,-0.0119810104370117,-0.00154513120651245,0.0138993635773659,0.0184153291958881
1.182705157,-0.0118818283081055,-0.0089569091796875,0.00834527984261513,0.0170601219704909
1.187705157,-0.00275897979736328,-0.00642240047454834,0.0230149924755096,0.0240530471255827
1.192705157,-0.00815963745117188,0.00638383626937866,0.00888298079371452,0.0136469922191779
1.197705157,-0.0150556564331055,-0.00755470991134644,0.00894318521022797,0.0190716279897849
1.202705157,-0.0137548446655273,-0.00864815711975098,0.0191331170499325,0.0251010466193564
1.207705157,-0.0102024078369141,-0.00597673654556274,0.0132002793252468,0.0177216782407968
1.212705157,-0.00281238555908203,-0.00208133459091187,0.00221018493175507,0.00413840351401559
1.217705157,-0.0110712051391602,-0.00113147497177124,0.00042976438999176,0.0111371682341615
1.222705157,-0.0200624465942383,-0.00582605600357056,0.0107809901237488,0.0235090289027806
1.227705157,-0.0128555297851563,-0.001262366771698,0.0163828209042549,0.0208627667557354
1.232705157,-0.0130834579467773,-0.000552535057067871,0.015060056000948,0.0199571404160533
1.237705157,-0.0172462463378906,-0.00723636150360107,0.00398422777652741,0.0191225524324881
1.242705157,-0.00764179229736328,0.00232350826263428,0.0124100968241692,0.0147582581407097
1.247705157,-0.0247421264648438,-0.0148206949234009,0.00540269911289215,0.0293430567207864
1.252705157,-0.0159492492675781,0.00893926620483398,0.0148065537214279,0.0235270709096088
1.257705157,-0.0197849273681641,0.00574260950088501,0.0115065425634384,0.0235970641522924
1.262705157,-0.00528144836425781,0.00175774097442627,0.00980887562036514,0.0112781820828222
1.267705157,-0.0134782791137695,0.00418287515640259,0.00472353771328926,0.0148819441260741
1.272705157,-0.0201997756958008,0.000127315521240234,0.0119818300008774,0.0234864087840721
1.277705157,-0.0286426544189453,0.00415438413619995,0.00927406921982765,0.0303919219466027
1.282705157,-0.0172948837280273,-0.00139200687408447,0.00733628496527672,0.0188380403278905
1.287705157,-0.00772476196289063,-0.000162005424499512,-0.00393816828727722,0.00867221785933709
1.292705157,-0.00957679748535156,0.0040479302406311,-0.00767762959003449,0.0129246580391988
1.297705157,-0.0107049942016602,0.00618541240692139,-0.00219625607132912,0.0125570604932892
1.302705157,-0.0173759460449219,0.00496554374694824,0.0031866729259491,0.0183503408686561
1.307705157,-0.0093536376953125,-0.00942105054855347,-0.00994591042399406,0.0165881845219929
1.312705157,-0.0174551010131836,0.00439637899398804,0.00539040192961693,0.0187900274774158
1.317705157,-0.0117530822753906,0.00440168380737305,-0.00606077164411545,0.013937098558678
1.322705157,-0.0164661407470703,0.0043635368347168,-0.00612414255738258,0.0181019161105504
1.327705157,-0.00919628143310547,-0.00583338737487793,0.0005917027592659,0.0109064252905152
1.332705157,-0.00793647766113281,-0.00558179616928101,0.00747109204530716,0.0122458704260053
1.337705157,-0.013422966003418,0.0047600269317627,-0.00214897468686104,0.0144031928725818
1.342705157,-0.0167112350463867,0.00813931226730347,-0.0111321080476046,0.0216665089606933
1.347705157,-0.0129032135009766,0.000616014003753662,-0.014819672331214,0.0196594781189418
1.352705157,-0.010106086730957,-0.00243961811065674,-0.00701969303190708,0.0125443539411831
1.357705157,-0.00446891784667969,-0.00388246774673462,0.0103453174233437,0.0119193277962536
1.362705157,-0.020411491394043,-0.00505995750427246,-0.000176146626472473,0.0210300541727346
1.367705157,-0.0165128707885742,-0.0137894153594971,0.00729713588953018,0.0227171976666831
1.372705157,-0.0111541748046875,-0.00376230478286743,-0.00506014563143253,0.0128131037092509
1.377705157,-0.0177974700927734,0.00184005498886108,-0.00776451826095581,0.0195044479001564
1.382705157,-0.0121259689331055,0.0129581689834595,-0.00219444930553436,0.0178820824773037
1.387705157,-0.0264225006103516,0.011549174785614,-0.009636415168643,0.0304038233456772
1.392705157,-0.0175638198852539,0.0179581046104431,0.00262461975216866,0.0252560867714049
1.397705157,-0.0121269226074219,-0.00432312488555908,-0.00528134033083916,0.0139156105289236
1.402705157,-0.0163040161132813,0.00296980142593384,0.00428818911314011,0.0171180965005361
1.407705157,-0.0161685943603516,0.00158047676086426,0.00992993265390396,0.0190400869980232
1.412705157,-0.0102500915527344,-0.00156301259994507,0.0051567479968071,0.0115801310497592
1.417705157,-0.0101594924926758,-0.0126750469207764,0.00522871688008308,0.0170649225713064
1.422705157,-0.0111207962036133,0.00335466861724854,-0.000265046954154968,0.0116187847738806
1.427705157,-0.00685405731201172,-0.00218009948730469,0.0174466334283352,0.0188710347727302
1.432705157,-0.0137243270874023,-0.0105128884315491,0.00767913088202477,0.0189168450931827
1.437705157,-0.0094146728515625,-0.000280022621154785,0.0065041184425354,0.011446310946538
1.442705157,0.0004730224609375,0.00575089454650879,0.0151413641870022,0.0162036245259216
1.447705157,-0.0164899826049805,0.0167930722236633,-0.0079798698425293,0.0248516623935993
1.452705157,-0.0109090805053711,0.000148952007293701,0.0178502723574638,0.0209203835387591
1.457705157,-0.0173006057739258,-0.00237023830413818,-0.000212844461202621,0.0174635131782772
1.462705157,-0.0219860076904297,-0.0115764141082764,0.00131778791546822,0.0248824127198326
1.467705157,-0.00546455383300781,-0.0071900486946106,0.00688702613115311,0.0113573446613149
1.472705157,-0.0116033554077148,0.00901609659194946,0.0000511035323143005,0.0146945726730696
1.477705157,-0.0109090805053711,-0.00457674264907837,-0.00875190086662769,0.0147156508360262
1.482705157,-0.0146818161010742,-0.0048515796661377,0.00458972901105881,0.0161294501356245
1.487705157,0.00361824035644531,0.0015556812286377,0.0133675783872604,0.013935708066033
1.492705157,-0.00354194641113281,0.0111120939254761,0.00769003108143807,0.0139699890415641
1.497705157,-0.0098419189453125,-0.0000936985015869141,0.00448732450604439,0.0108170342126596
1.502705157,-0.00656700134277344,-0.0142554044723511,0.0108323469758034,0.0190704432122201
1.507705157,-0.00496196746826172,0.00585848093032837,-0.00611936859786511,0.00981782012483659
1.512705157,-0.0142803192138672,-0.00929754972457886,-0.000551674515008926,0.0170492314343337
1.517705157,-0.00305652618408203,0.000124514102935791,-0.00675778277218342,0.00741791642389074
1.522705157,-0.00200080871582031,-0.00154268741607666,0.016358457505703,0.0165524092490161
1.527705157,-0.0117568969726563,-0.00455403327941895,-0.00531203299760819,0.0136814304845432
1.532705157,-0.00610256195068359,-0.00117909908294678,0.00125017762184143,0.00633991175770532
1.537705157,-0.00049591064453125,-0.00378262996673584,0.00823089107871056,0.00907203311183356
1.542705157,-0.000344276428222656,0.000333666801452637,0.0128625743091106,0.0128715064250776
1.547705157,-0.0140848159790039,-0.0016326904296875,-0.00269925966858864,0.0144337701921593
1.552705157,-0.00684547424316406,-0.00736981630325317,0.00147488713264465,0.0101661203028274
1.557705157,-0.00786876678466797,-0.0043444037437439,0.00247212871909142,0.00932216471662599
1.562705157,-0.0117969512939453,0.00251889228820801,0.00637558847665787,0.0136440832090326
1.567705157,-0.00899600982666016,0.00523954629898071,0.00360958650708199,0.0110186275448731
1.572705157,-0.0176143646240234,0.00470638275146484,0.00693788751959801,0.0195076949675231
1.577705157,-0.00509738922119141,-0.00317829847335815,-0.0144624076783657,0.0156603382438988
1.582705157,-0.0124883651733398,0.000528037548065186,-0.0125289149582386,0.0176977907769764
1.587705157,-0.0154256820678711,0.000505506992340088,-0.0126423798501492,0.0199508639625907
1.592705157,-0.0132408142089844,-0.0100064277648926,-0.00350487045943737,0.0169626611847402
1.597705157,-0.0131349563598633,0.00347334146499634,0.00761893391609192,0.0155768845898579
1.602705157,-0.00937938690185547,-0.0035666823387146,-0.027325339615345,0.029109591317192
1.607705157,-0.0189180374145508,0.000508427619934082,-0.00311936438083649,0.0191802260780077
1.612705157,-0.0139894485473633,-0.00980222225189209,-0.00824237987399101,0.018966419211912
1.617705157,-0.0137939453125,-0.00136089324951172,0.00299720466136932,0.0141812620560704
1.622705157,-0.0150060653686523,0.00418967008590698,0.00883295759558678,0.0179096754063954
1.627705157,-0.0127696990966797,-0.00786912441253662,0.00434236600995064,0.0156155203757062
1.632705157,0.000983238220214844,0.00590324401855469,-0.00176757574081421,0.0062401419326653
1.637705157,-0.00630950927734375,0.00629138946533203,-0.0102951247245073,0.0136154721482048
1.642705157,-0.00278472900390625,-0.00623804330825806,-0.00186633318662643,0.00708174410046021
1.647705157,-0.00564765930175781,0.00564241409301758,0.0117311552166939,0.0141898870715724
1.652705157,-0.00375652313232422,0.0112181901931763,-0.00500619783997536,0.012846060643907
1.657705157,-0.00267791748046875,0.010058581829071,-0.00121384114027023,0.0104794904817997
1.662705157,0.0020904541015625,0.00407594442367554,0.000356972217559814,0.00459464367059522
1.667705157,-0.00480365753173828,-0.00708317756652832,0.0101010464131832,0.0132392472883649
1.672705157,-0.0150690078735352,-0.0159660577774048,0.00907338410615921,0.0237553425229357
1.677705157,-0.00426483154296875,-0.0124325752258301,0.000881616026163101,0.0131732669316845
1.682705157,-0.00627326965332031,0.00255841016769409,0.0105050839483738,0.0125002465372412
1.687705157,-0.00256443023681641,-0.0130631327629089,0.0087038092315197,0.0159052832467571
1.692705157,-0.0132293701171875,0.0048031210899353,0.003794115036726,0.0145767456866759
1.697705157,-0.0168466567993164,0.00512558221817017,0.00526160001754761,0.0183784077964832
1.702705157,-0.00232982635498047,0.0057407021522522,0.00391042232513428,0.00732633297128537
1.707705157,-0.00356960296630859,0.00200831890106201,-0.000960201025009155,0.0042068273263673
1.712705157,-0.0146446228027344,0.00144344568252563,0.0030573382973671,0.0150298313342937
1.717705157,-0.0256261825561523,-0.00408017635345459,-0.0101410616189241,0.0278601902763666
1.722705157,-0.0184383392333984,0.000682175159454346,0.0239996686577797,0.0302724596344147
1.727705157,-0.00319957733154297,0.00226539373397827,0.00557012856006622,0.00681143421359533
1.732705157,0.000783920288085938,0.00307345390319824,-0.000817790627479553,0.00327558108181597
1.737705157,-0.00477313995361328,0.000727653503417969,0.0025448314845562,0.00545788529767751
1.742705157,-0.00628471374511719,0.00876367092132568,0.0167854987084866,0.0199512536390062
1.747705157,-0.00160503387451172,-0.00396430492401123,0.0181090794503689,0.0186072729277732
1.752705157,-0.010955810546875,-0.000412404537200928,0.0124134980142117,0.0165618475777963
1.757705157,-0.00750827789306641,0.00675320625305176,0.00847872346639633,0.0131859312615904
1.762705157,-0.00379085540771484,-0.00115084648132324,0.00343997776508331,0.00524675893957808
1.767705157,-0.00601673126220703,0.00239050388336182,-0.00118232145905495,0.00658129530795642
1.772705157,0.00223636627197266,-0.0113443732261658,0.0111119747161865,0.0160365869214784
1.777705157,-0.00107669830322266,-0.00355082750320435,-0.00128215923905373,0.00392575948167559
1.782705157,0.00254535675048828,-0.000895798206329346,-0.00224227085709572,0.00350842899462137
1.787705157,-0.00125312805175781,-0.00668048858642578,-0.000706002116203308,0.00683357129585629
1.792705157,-0.00382518768310547,-0.00104624032974243,0.00564931705594063,0.0069022795391887
1.797705157,0.000836372375488281,-0.00222837924957275,-0.00334743782877922,0.00410737542086775
1.802705157,-0.000668525695800781,0.0090222954750061,0.0107659287750721,0.014062502075882
1.807705157,-0.0101728439331055,0.00529247522354126,0.00330923870205879,0.0119351626912381
1.812705157,-0.00433635711669922,-0.00266486406326294,0.00220203399658203,0.00554566923295298
1.817705157,-0.00969219207763672,-0.00274181365966797,0.000414084643125534,0.0100810513095519
1.822705157,-0.00906753540039063,-0.00578570365905762,-0.00472827069461346,0.0117495152593335
1.827705157,-0.00119686126708984,0.0137727856636047,-0.00377859733998776,0.0143317793621734
1.832705157,-0.00478172302246094,0.00699561834335327,0.0117037743330002,0.0144492866504609
1.837705157,-0.00124931335449219,0.000492572784423828,0.00054505467414856,0.00144930893997062
1.842705157,-0.00561904907226563,-0.00504857301712036,-0.021637324243784,0.022918019164325
1.847705157,-0.00557327270507813,-0.00266259908676147,0.0118893161416054,0.0133980088392653
1.852705157,-0.0111045837402344,0.000023186206817627,0.00626550242304802,0.0127502485566864
1.857705157,-0.0113401412963867,-0.000378727912902832,0.0045655183494091,0.0122305436204945
1.862705157,0.00311470031738281,-0.00359094142913818,-0.00543452426791191,0.00722012966871988
1.867705157,-0.00201988220214844,-0.0110940933227539,0.000107444822788239,0.0112769843111744
1.872705157,-0.0110340118408203,0.00784492492675781,0.0129684321582317,0.01874759976777
1.877705157,-0.000520706176757813,0.000813424587249756,0.00244855880737305,0.00263215400666836
1.882705157,-0.000516891479492188,-0.00209885835647583,-0.0022098682820797,0.00309126204425667
1.887705157,-0.000510215759277344,-0.00390058755874634,0.00349169597029686,0.00525992815287899
1.892705157,-0.00501251220703125,0.000564217567443848,0.00345741584897041,0.00611533682161182
1.897705157,-0.0130128860473633,-0.00452601909637451,-0.00545118004083633,0.0148167275732539
1.902705157,0.00100994110107422,-0.0045703649520874,-0.00529480911791325,0.00706705174864633
1.907705157,-0.00434589385986328,0.00338947772979736,-0.0044228732585907,0.00706662299712857
1.912705157,-0.00859451293945313,-0.0051499605178833,-0.000474508851766586,0.0100305984194658
1.917705157,-0.00500774383544922,0.00274717807769775,0.0132808014750481,0.0144569766386925
1.922705157,-0.0141744613647461,-0.00364106893539429,0.00882430747151375,0.0170892112259398
1.927705157,-0.004180908203125,0.00297623872756958,-0.00226952508091927,0.00561148237628566
1.932705157,-0.00153541564941406,-0.00890958309173584,-0.0103662926703691,0.0137549335081185
1.937705157,-0.00707340240478516,-0.00125622749328613,0.00349107012152672,0.00798740882190996
1.942705157,-0.0094757080078125,0.00250798463821411,0.0090964213013649,0.0133725057370249
1.947705157,-0.00159835815429688,-0.00188928842544556,0.0118921734392643,0.0121469316559151
1.952705157,-0.00458717346191406,0.0105810761451721,0.022999819368124,0.0257292250898847
1.957705157,-0.000609397888183594,-0.00204527378082275,0.0111508257687092,0.0113532121423301
1.962705157,-0.00300693511962891,0.00754690170288086,0.00231458246707916,0.00844716971082705
1.967705157,-0.00218868255615234,0.00593501329421997,0.0111085660755634,0.0127833858734426
1.972705157,-0.01409912109375,0.0043874979019165,0.00386914610862732,0.0152645224316208
1.977705157,-0.014653205871582,0.00594907999038696,0.0112008862197399,0.0193795729352983
1.982705157,0.000281333923339844,0.0108045339584351,-0.000897731631994247,0.0108454149260635
1.987705157,-0.0103139877319336,0.016642153263092,-0.00726456567645073,0.0208833312149711
1.992705157,0.00194168090820313,-0.00234824419021606,-0.00654572248458862,0.00722017024532061
1.997705157,-0.00669574737548828,-0.00346601009368897,0.00886893272399902,0.0116406282712203
2.002705157,0.00425434112548828,0.00436967611312866,0.00554411113262177,0.00824200558095714
2.007705157,0.00594806671142578,0.00173085927963257,0.0164350718259811,0.0175637967812948
2.012705157,0.000344276428222656,0.00532990694046021,-0.00529555976390839,0.00752126235854867
2.017705157,-0.00230884552001953,-0.00748753547668457,0.000264290720224381,0.00783988550520485
2.022705157,0.00349140167236328,-0.00366467237472534,0.00571008771657944,0.00763051839542292
2.027705157,0.00565624237060547,-0.00365239381790161,0.000707287341356278,0.00677003055674945
2.032705157,0.00315475463867188,-0.00364029407501221,-0.0127645023167133,0.0136431938040977
2.037705157,0.000416755676269531,0.00476807355880737,0.00542575120925903,0.00723512176405323
2.042705157,0.0088653564453125,-0.00290566682815552,-0.00664524361491203,0.0114541131180121
2.047705157,-0.00594806671142578,0.005218505859375,-0.00927652046084404,0.0121928722156988
2.052705157,0.00513362884521484,-0.0113916397094727,-0.00596428662538528,0.0138454438477286
2.057705157,-0.000279426574707031,-0.000454425811767578,-0.00397408753633499,0.00400973238203078
2.062705157,0.00257492065429688,0.00216823816299438,-0.0085397157818079,0.00917922756779942
2.067705157,0.000763893127441406,-0.00342154502868652,0.000356424599885941,0.00352385323032693
2.072705157,-0.008819580078125,0.00929701328277588,-0.00875414721667767,0.0155194891096916
2.077705157,-0.00669765472412109,-0.00395369529724121,-0.0106054339557886,0.0131516354381333
2.082705157,-0.0217018127441406,0.00396603345870972,0.00884276628494263,0.0237674696454517
2.087705157,-0.032597541809082,0.0178234577178955,0.0143659263849258,0.0398328409470574
2.092705157,-0.046687126159668,0.0125517845153809,0.0165983140468597,0.0511149593834084
2.097705157,-0.0465011596679688,0.00156819820404053,-0.0109005887061358,0.0477874453200149
2.102705157,-0.0353374481201172,0.00636708736419678,0.0292285680770874,0.0462988577934944
2.107705157,-0.0302619934082031,0.0134779214859009,0.0209126509726048,0.0391762885342681
2.112705157,-0.0362625122070313,0.0124268531799316,0.0234481245279312,0.0449356319127487
2.117705157,-0.0248241424560547,0.00503981113433838,0.0266274958848953,0.0367513439488737
2.122705157,-0.0208587646484375,0.00380158424377441,0.0308673493564129,0.0374477417438257
2.127705157,-0.00714778900146484,0.00335633754730225,0.00987545400857925,0.0126443853633325
2.132705157,0.000680923461914063,0.00760757923126221,0.0173889063298702,0.0189924453894152
2.137705157,0.0201883316040039,-0.000152170658111572,0.0375137701630592,0.0426013478743249
2.142705157,0.0268077850341797,0.0026276707649231,0.0220211297273636,0.0347921276520565
2.147705157,0.0325832366943359,-0.00329858064651489,0.0106214731931686,0.0344291103654144
2.152705157,0.035858154296875,-0.00435912609100342,0.00534734502434731,0.0365157953311327
2.157705157,0.0447807312011719,-0.0122488737106323,-0.00406721420586109,0.0466035516402665
2.162705157,0.0304727554321289,-0.00815308094024658,-0.0141639765352011,0.034578602975457
2.167705157,0.0302314758300781,-0.0120080709457397,-0.011673204600811,0.0345600868684515
2.172705157,0.0277109146118164,-0.0186212658882141,-0.0079739298671484,0.0343253534494424
2.177705157,0.0188465118408203,-0.0196470022201538,-0.0172363389283419,0.0322224624207645
2.182705157,0.0114812850952148,-0.0122288465499878,-0.032897874712944,0.0369274255264202
2.187705157,0.0246353149414063,-0.0113531351089478,-0.0312799997627735,0.0414032704532312
2.192705157,0.0103235244750977,-0.0208486318588257,-0.035733487457037,0.0426394504398802
2.197705157,0.00708866119384766,-0.0208428502082825,-0.0321207009255886,0.0389411472645218
2.202705157,-0.00884532928466797,-0.0137302875518799,-0.0181033946573734,0.02438223830029
2.207705157,-0.027806282043457,-0.00666046142578125,-0.0137355271726847,0.031720904372293
2.212705157,-0.0522279739379883,-0.00668060779571533,-0.0185317005962133,0.0558194921973951
2.217705157,-0.0413684844970703,-0.00177282094955444,-0.00431590899825096,0.0416307755654961
2.222705157,-0.0422544479370117,0.010255753993988,-0.000110693275928497,0.0434813881269696
2.227705157,-0.028040885925293,0.0185477137565613,0.0209547020494938,0.0396157608415348
2.232705157,-0.0259180068969727,0.00738894939422607,0.0215672701597214,0.0345179199373943
2.237705157,-0.0145893096923828,0.0160448551177979,0.00960902869701386,0.0237195861167815
2.242705157,-0.00745105743408203,0.0300357341766357,0.0260494127869606,0.0404504077972149
2.247705157,-0.0023040771484375,0.0265410542488098,0.00126395002007484,0.0266708436648987
2.252705157,-0.00760555267333984,0.0280579328536987,0.00834955647587776,0.0302457785621975
2.257705157,0.00403690338134766,0.0147168040275574,0.0253846496343613,0.0296185979876689
2.262705157,0.00579261779785156,0.0116021633148193,0.0277980156242847,0.0306740001822994
2.267705157,0.0122337341308594,0.00804609060287476,0.00387746840715408,0.0151472303086307
2.272705157,0.00373268127441406,0.00653505325317383,0.0158274807035923,0.0175256662053334
2.277705157,0.0125942230224609,0.0060388445854187,0.0264474786818028,0.0299090492341488
2.282705157,0.0203886032104492,0.00133734941482544,0.000845059752464294,0.0204498843594703
2.287705157,0.0165233612060547,-0.00636333227157593,0.0011846199631691,0.0177458949507026
2.292705157,0.0110111236572266,-0.0126398801803589,-0.00427266582846642,0.0172993378038094
2.297705157,0.0137500762939453,0.00180768966674805,-0.0110002998262644,0.0177013823270471
2.302705157,0.0161371231079102,-0.0118219256401062,-0.00467454642057419,0.0205430292867958
2.307705157,0.00980854034423828,-0.0050046443939209,-0.0090266540646553,0.0142384835146553
2.312705157,-0.003173828125,-0.0116143226623535,-0.0199666097760201,0.0233158997643273
2.317705157,0.00327110290527344,-0.0143619179725647,-0.0228795632719994,0.0272110127996917
2.322705157,0.00605106353759766,-0.0198978781700134,-0.0171184446662664,0.0269366306986744
2.327705157,0.00504875183105469,-0.0103864669799805,-0.0134444590657949,0.0177234892430819
2.332705157,-0.00286388397216797,0.00397586822509766,0.00955783575773239,0.0107406510008086
2.337705157,0.0157938003540039,-0.0169216990470886,-0.00107617489993572,0.0231720991858231
2.342705157,0.0118646621704102,-0.00215500593185425,0.0161887183785439,0.0201863533537906
2.347705157,0.0034027099609375,-0.00909024477005005,0.00934671983122826,0.0134748713040667
2.352705157,-0.002593994140625,-0.00898504257202148,0.0113111212849617,0.0146765547846131
2.357705157,0.00291061401367188,-0.00512129068374634,0.00512893125414848,0.00781058435802285
2.362705157,0.00156593322753906,0.0140685439109802,0.0169208571314812,0.022061085211573
2.367705157,-0.0140419006347656,0.023420512676239,0.0317150130867958,0.0418513732456909
2.372705157,-0.0209226608276367,0.0135869383811951,0.0295627005398273,0.0386822426171263
2.377705157,-0.0173587799072266,0.0102344751358032,0.0153055414557457,0.025304768728966
2.382705157,-0.0172014236450195,0.0103102326393127,0.011809553951025,0.0232734921533997
2.387705157,-0.0170507431030273,0.0179072022438049,0.0285813920199871,0.0377927466898894
2.392705157,-0.0260953903198242,0.00142145156860352,0.0145518556237221,0.0299123122242249
2.397705157,-0.0119333267211914,0.0144557952880859,0.0103743113577366,0.0214243002264487
2.402705157,-0.0132989883422852,0.010292112827301,0.0171194076538086,0.0239971830804245
2.407705157,-0.0141916275024414,0.0125021934509277,0.00716905295848846,0.0202262812344258
2.412705157,-0.0116024017333984,0.0118269920349121,0.0156028866767883,0.022758372947681
2.417705157,-0.00372600555419922,0.00226610898971558,0.00491442158818245,0.00657038103077644
2.422705157,0.0121097564697266,0.00527679920196533,-0.0034620575606823,0.0136556455038722
2.427705157,-0.000565528869628906,0.00456130504608154,-0.00359843298792839,0.00583729788467266
2.432705157,0.00427150726318359,-0.00415533781051636,-0.00847884453833103,0.0103635617103447
2.437705157,0.00500679016113281,-0.0065038800239563,-0.00619529187679291,0.0102834840653492
2.442705157,0.0120763778686523,-0.00566595792770386,0.00555023923516274,0.0144480842063066
2.447705157,0.0199642181396484,-0.0166255831718445,0.005036860704422,0.0264641264259211
2.452705157,0.0118169784545898,0.00108188390731812,-0.0189206656068563,0.0223338988891692
2.457705157,0.0108604431152344,0.00236254930496216,0.00686541199684143,0.0130638717753962
2.462705157,0.00855636596679688,-0.0114859938621521,-0.00829662382602692,0.0165521424737027
2.467705157,0.011566162109375,-0.00579541921615601,-0.0121869836002588,0.0177731696414655
2.472705157,0.00819015502929688,-0.00343656539916992,-0.013523418456316,0.0161793531357504
2.477705157,0.00257205963134766,-0.0033690333366394,-0.0154330674558878,0.0160045445879781
2.482705157,0.0116996765136719,-0.0079389214515686,-0.0203751064836979,0.0248002796065038
2.487705157,0.0169410705566406,-0.00326204299926758,-0.00974836386740208,0.0198159378840724
2.492705157,-0.000103950500488281,0.000285863876342773,-0.00624635443091393,0.00625375627434804
2.497705157,-0.000502586364746094,-0.00666725635528564,-0.00755678117275238,0.0100900863253983
2.502705157,0.00167083740234375,-0.00731813907623291,-0.00359392538666725,0.00832244896944939
2.507705157,-0.0151119232177734,0.0219669342041016,-0.00811316259205341,0.0278700525459193
2.512705157,-0.0171947479248047,0.00641709566116333,0.00092112272977829,0.0183762602290404
2.517705157,-0.0191755294799805,0.00874876976013184,0.00532180443406105,0.0217385258375031
2.522705157,-0.02264404296875,0.00129151344299316,0.00730809941887856,0.0238291629324289
2.527705157,-0.0167055130004883,0.00394117832183838,0.0211184211075306,0.0272138707509425
2.532705157,-0.016566276550293,0.0129846334457397,0.0227082371711731,0.0309629820896382
2.537705157,-0.0207204818725586,0.015444278717041,0.0248875617980957,0.0358783339408996
2.542705157,-0.00307846069335938,0.0143520832061768,0.0331161506474018,0.0362234543672879
2.547705157,-0.0115690231323242,0.00116252899169922,0.00837140902876854,0.0143273954025057
2.552705157,0.000891685485839844,-0.000716030597686768,0.0145296603441238,0.0145745954502376
2.557705157,-0.00188636779785156,-0.0117188692092896,0.017875149846077,0.0214571960198184
2.562705157,-0.00545215606689453,0.00768059492111206,0.0183751434087753,0.0206485699120556
2.567705157,0.00661945343017578,-0.00174593925476074,0.0143998079001904,0.0159442759370868
2.572705157,0.0166559219360352,0.000280320644378662,-0.000736746937036514,0.0166745647994841
2.577705157,0.0122289657592773,-0.00623315572738648,-0.00773350708186626,0.0157545855435395
2.582705157,0.0204133987426758,0.00505709648132324,0.000132907181978226,0.0210308995853223
2.587705157,0.0223045349121094,-0.000135481357574463,0.0170556232333183,0.0280785490494196
2.592705157,0.0091400146484375,-0.00571697950363159,-0.00156528502702713,0.010893752321144
2.597705157,0.00244998931884766,-0.00780612230300903,-0.0181651078164578,0.0199225785242658
2.602705157,0.00217819213867188,-0.00720345973968506,-0.00205814093351364,0.00780194189394153
2.607705157,0.00352573394775391,-0.00570112466812134,-0.0178744792938232,0.0190900663272059
2.612705157,0.00905036926269531,-0.00591981410980225,-0.0234932862222195,0.0258628668249458
2.617705157,0.00559329986572266,-0.00109851360321045,-0.0251351166516542,0.0257733549352155
2.622705157,0.0133781433105469,-0.00665926933288574,-0.0125399939715862,0.0195082555676529
2.627705157,-0.00223731994628906,-0.00758010149002075,-0.010945675894618,0.0135007910853809
2.632705157,-0.0150861740112305,-0.00344580411911011,0.00228415057063103,0.015642364148482
2.637705157,-0.00269317626953125,-0.00605845451354981,-0.00227274373173714,0.0070088111389642
2.642705157,-0.00494098663330078,-0.000432491302490234,0.0019138939678669,0.0053163321714716
2.647705157,-0.0104465484619141,0.00213640928268433,0.00643837079405785,0.0124558114096206
2.652705157,-0.00424480438232422,-0.00172668695449829,0.00213982537388802,0.00505753543870614
2.657705157,0.00689983367919922,-0.00723350048065186,0.00560827180743218,0.0114622836586014
2.662705157,-0.00502204895019531,0.00623863935470581,0.0172704048454762,0.019037029184799
2.667705157,-0.000843048095703125,0.000615537166595459,0.00488997995853424,0.00500015200668895
2.672705157,-0.0167379379272461,-0.00733399391174316,0.0165082849562168,0.0246266015712579
2.677705157,-0.0165996551513672,0.00386708974838257,0.0186114981770515,0.0252366954782267
2.682705157,-0.0164623260498047,0.00765472650527954,0.00577948614954948,0.0190527026165198
2.687705157,-0.0258693695068359,0.00675421953201294,0.00903882831335068,0.0282231142407437
2.692705157,-0.0294961929321289,0.00106668472290039,0.00915393233299255,0.0309023897286997
2.697705157,-0.027033805847168,0.00212210416793823,0.0110352039337158,0.029276367782576
2.702705157,-0.0224695205688477,0.006378173828125,0.014453649520874,0.0274675889085283
2.707705157,-0.0253133773803711,0.00504434108734131,0.0214136801660061,0.0335374141766852
2.712705157,-0.0335845947265625,0.00650805234909058,0.0289540998637676,0.0448176265240249
2.717705157,-0.0148258209228516,-0.00299608707427979,0.0156973339617252,0.0217988026574641
2.722705157,-0.00914955139160156,-0.00197082757949829,0.0175073817372322,0.019852125007385
2.727705157,0.0000143051147460938,0.00187373161315918,0.0408994555473328,0.0409423562934855
2.732705157,0.00123119354248047,0.00709080696105957,0.0233495496213436,0.0244335189528165
2.737705157,0.00146961212158203,0.00127565860748291,0.00865820422768593,0.00887420785868038
2.742705157,0.0125608444213867,0.0181042551994324,0.0218346156179905,0.0310207883215409
2.747705157,0.0183124542236328,0.0109845399856567,0.0130666121840477,0.0250348247918263
2.752705157,0.0181589126586914,0.00745159387588501,-0.00489510223269463,0.0202295424096948
2.757705157,0.0142669677734375,0.00726252794265747,0.00445800647139549,0.0166181979548081
2.762705157,0.0110616683959961,0.00671613216400147,-0.00960824824869633,0.0161178588328565
2.767705157,0.0165195465087891,0.0037575364112854,-0.00352699868381023,0.0173047454894251
2.772705157,0.00905704498291016,0.00964260101318359,-0.00450903363525868,0.0139764517115683
2.777705157,-0.00142669677734375,-0.00900065898895264,-0.000768367201089859,0.00914536571634003
2.782705157,0.000897407531738281,-0.0111616253852844,-0.0119011700153351,0.0163409017270577
2.787705157,0.00608539581298828,-0.00405925512313843,-0.0369620658457279,0.0376789583977502
2.792705157,0.00602626800537109,-0.00693821907043457,-0.0291007217019796,0.0305173195664031
2.797705157,0.00436115264892578,-0.00893187522888184,-0.0209690015763044,0.0232055397402992
2.802705157,0.0119447708129883,-0.0089343786239624,-0.0094131026417017,0.0176382304246867
2.807705157,-0.000777244567871094,-0.00892025232315064,-0.00467725098133087,0.0101020635203566
2.812705157,0.00655555725097656,-0.00886249542236328,-0.00657898560166359,0.0128375312084972
2.817705157,0.00508499145507813,-0.010873556137085,-0.0064067468047142,0.0136065339372035
2.822705157,0.00771808624267578,-0.0163995623588562,-0.00136750936508179,0.0181764843320974
2.827705157,0.0150222778320313,-0.0107836723327637,0.00946431234478951,0.0207732912270272
2.832705157,0.00803947448730469,-0.00853419303894043,0.0034434087574482,0.0122197653303487
2.837705157,-0.0148410797119141,-0.00150156021118164,0.0230254530906677,0.0274350837453384
2.842705157,-0.0371427536010742,0.0153499245643616,0.0326706804335117,0.0517936066439705
2.847705157,-0.0278854370117188,0.0175313353538513,0.0250565372407436,0.0413856904632568
2.852705157,-0.0161409378051758,0.0111449956893921,0.0152005702257156,0.0248152803194732
2.857705157,-0.0144748687744141,0.0134745836257935,0.0322711914777756,0.0378485934919683
2.862705157,-0.0061187744140625,0.0292736887931824,0.0178108215332031,0.0348082406848995
2.867705157,0.00373935699462891,0.0188508033752441,0.0242206081748009,0.0309188201421501
2.872705157,0.000794410705566406,0.0135952830314636,0.0123448558151722,0.0183809214723341
2.877705157,-0.00123119354248047,0.0111305713653564,0.00874362885951996,0.0142076212678748
2.882705157,0.00374031066894531,-0.00178378820419312,-0.00894862972199917,0.00986153122791241
2.887705157,-0.000169754028320313,-0.00722223520278931,-0.00244811177253723,0.00762776172971963
2.892705157,-0.00102424621582031,0.00145339965820313,-0.000443153083324432,0.00183243977591274
2.897705157,0.00448513031005859,-0.00714963674545288,-0.00569991394877434,0.010184435110185
2.902705157,0.0100040435791016,-0.00305891036987305,-0.00631371513009071,0.0122188714424621
2.907705157,0.00599193572998047,-0.0101444721221924,-0.00675749592483044,0.013582244277153
2.912705157,0.00834751129150391,-0.0203834772109985,-0.0105334687978029,0.0244155903653254
2.917705157,0.0129833221435547,-0.0177547335624695,-0.0206834934651852,0.0301927825760057
2.922705157,0.00803565979003906,-0.00261598825454712,-0.0320382341742516,0.0331340258920246
2.927705157,-0.00228023529052734,-0.00810617208480835,-0.0205811429768801,0.0222371973297777
2.932705157,-0.00282192230224609,-0.00856024026870728,-0.0142395347356796,0.016852457044198
2.937705157,-0.00651359558105469,-0.00718182325363159,-0.0147159285843372,0.0176228280006148
2.942705157,-0.00571250915527344,-0.0147963762283325,0.00401833653450012,0.0163619234457305
2.947705157,-0.0135116577148438,-0.00780278444290161,0.011197917163372,0.019205251575109
2.952705157,-0.019810676574707,-0.0106335878372192,0.00092991441488266,0.0225033516938813
2.957705157,-0.0104331970214844,0.00179952383041382,-0.00835257396101952,0.0134853764456035
2.962705157,-0.0173835754394531,0.0134348273277283,0.00680205971002579,0.0229989412078858
2.967705157,-0.0265741348266602,0.0136473178863525,0.00817811861634255,0.0309728195581164
2.972705157,-0.0173940658569336,0.0105487108230591,0.0143318809568882,0.0248843653490757
2.977705157,-0.0228614807128906,-0.0030059814453125,0.0182183422148228,0.0293869225658596
2.982705157,-0.00577163696289063,0.00554406642913818,0.0269909240305424,0.0281524145647334
2.987705157,-0.0215692520141602,0.0146822929382324,0.0109949819743633,0.0283141658360439
2.992705157,-0.0121192932128906,0.0316411256790161,0.0241191685199738,0.0415905324840907
2.997705157,-0.00643825531005859,0.0240304470062256,0.027644831687212,0.03719072779297
3.002705157,-0.00777149200439453,0.0228476524353027,0.0272746793925762,0.0364186689178309
3.007705157,0.00390529632568359,0.0168944001197815,0.0159285925328732,0.0235455336502907
3.012705157,0.018798828125,0.0296260714530945,0.0248470082879066,0.0429938817679499
3.017705157,0.00985527038574219,0.0183828473091126,0.0272773690521717,0.0343381754316476
3.022705157,0.00781059265136719,0.00916433334350586,0.0223555564880371,0.0253921497531482
3.027705157,0.0160579681396484,-0.00195598602294922,0.0198726914823055,0.0256243651403666
3.032705157,0.030975341796875,-0.00429254770278931,0.00536248087882996,0.031727810614503
3.037705157,0.0242681503295898,0.00127166509628296,0.00645704939961433,0.0251446562809225
3.042705157,0.0319366455078125,-0.0165591239929199,-0.0156203433871269,0.0392192432517041
3.047705157,0.0230703353881836,-0.00799524784088135,-0.00659916922450066,0.0252925561660737
3.052705157,0.024932861328125,-0.0101928114891052,-0.0154392886906862,0.0310469421253414
3.057705157,0.0216484069824219,-0.00723952054977417,-0.0190397500991821,0.0297250107906874
3.062705157,0.014033317565918,-0.00363320112228394,-0.0196903795003891,0.0244508731371747
3.067705157,0.012843132019043,-0.0127789974212646,-0.0283677522093058,0.0336597412432096
3.072705157,0.00213432312011719,-0.00387519598007202,-0.0254480969160795,0.0258297912441276
3.077705157,-0.00763416290283203,-0.00667071342468262,-0.0318263582885265,0.0334020350088266
3.082705157,-0.00879096984863281,-0.00909674167633057,-0.0424778237938881,0.0443215226980083
3.087705157,-0.00910663604736328,-0.00978004932403565,-0.044891931116581,0.0468387197119601
3.092705157,-0.0221414566040039,-0.0131997466087341,-0.0267508774995804,0.0371495202940675
3.097705157,-0.015655517578125,0.00543111562728882,-0.0278870891779661,0.0324388962576688
3.102705157,-0.0124101638793945,-0.000508189201354981,-0.0161630194634199,0.0203841512443539
3.107705157,-0.0260324478149414,-0.00818604230880737,-0.00291916355490685,0.0274448746358865
3.112705157,-0.0290870666503906,-0.000302135944366455,-0.00959186628460884,0.0306292773547624
3.117705157,-0.0288305282592773,0.00666892528533936,-0.000231128185987473,0.0295926907260693
3.122705157,-0.0479822158813477,0.0197332501411438,0.0126814879477024,0.0534089350070279
3.127705157,-0.0331144332885742,0.00293654203414917,0.0147040896117687,0.036351055314154
3.132705157,-0.0310869216918945,0.015845000743866,0.015903864055872,0.0383457121561036
3.137705157,-0.025935173034668,0.00662732124328613,0.0251106321811676,0.0367028396140921
3.142705157,-0.0249624252319336,0.00858253240585327,0.0281145758926868,0.0385643865967429
3.147705157,-0.0144195556640625,0.0169029831886292,0.0279669836163521,0.0357181550310396
3.152705157,-0.00871753692626953,0.0069013237953186,0.0397881381213665,0.0413124636805122
3.157705157,0.00167560577392578,0.0238828063011169,0.0324325598776341,0.0403121201593591
3.162705157,0.0106410980224609,0.0184488892555237,0.0348026230931282,0.0408021697468228
3.167705157,0.0316877365112305,0.00631630420684814,0.0399039387702942,0.0513452302889178
3.172705157,0.0320415496826172,-0.00661790370941162,0.0244073271751404,0.0408188090885197
3.177705157,0.0229406356811523,-0.00102096796035767,0.0159519873559475,0.027960347666575
3.182705157,0.0238857269287109,-0.0077892541885376,0.00856832042336464,0.026544614267381
3.187705157,0.0240488052368164,-0.00453990697860718,-0.00180844962596893,0.0245402990760586
3.192705157,0.0155906677246094,-0.00733429193496704,-0.00925969891250134,0.0195602347183432
3.197705157,0.0210018157958984,-0.00866544246673584,-0.00829389877617359,0.0241858412460384
3.202705157,0.0186586380004883,-0.0186194777488709,-0.0138518121093512,0.0297775489653989
3.207705157,0.0208902359008789,-0.0109385251998901,-0.00691748596727848,0.0245744766302458
3.212705157,0.0192546844482422,-0.00973576307296753,-0.00439143180847168,0.0220184610984236
3.217705157,0.00477313995361328,-0.0189111232757568,-0.0053135696798563,0.0202150308263515
3.222705157,0.0137205123901367,-0.0120964050292969,-0.0170299746096134,0.024991908892375
3.227705157,0.0154590606689453,-0.0177150368690491,-0.0233072303235531,0.0331063751170836
3.232705157,0.00753307342529297,-0.00144475698471069,-0.013320654630661,0.0153712184866742
3.237705157,-0.00779247283935547,-0.00161522626876831,-0.011660760268569,0.0141175394064422
3.242705157,-0.0102653503417969,0.0116594433784485,-0.00986632518470287,0.0184028370145849
3.247705157,-0.0145730972290039,-0.000487446784973145,-0.0149669013917446,0.0208954756941398
3.252705157,-0.012354850769043,0.00744718313217163,-0.0127684380859137,0.0192648873675201
3.257705157,-0.0213851928710938,0.0123736262321472,-0.00746883079409599,0.0258111707153627
3.262705157,-0.0322904586791992,0.0123329162597656,-0.00266614183783531,0.0346681822062092
3.267705157,-0.0343599319458008,0.0218376517295837,0.00507604330778122,0.0410274806933734
3.272705157,-0.0372800827026367,0.0186060667037964,0.00497213378548622,0.0419608436388299
3.277705157,-0.0330162048339844,0.0135509967803955,0.00574132427573204,0.0361477813955575
3.282705157,-0.0370292663574219,0.0123715996742249,0.0186975672841072,0.0432876664629995
3.287705157,-0.0325822830200195,0.0151888132095337,0.0292047448456287,0.0463165449381648
3.292705157,-0.0154504776000977,0.0147201418876648,0.0228857956826687,0.0312915240806989
3.297705157,-0.0114927291870117,0.0164942145347595,0.0140184685587883,0.0245083536374519
3.302705157,-0.00348472595214844,0.00968050956726074,0.0203573182225227,0.0228095590850954
3.307705157,0.00655841827392578,0.0134221911430359,0.0287870168685913,0.0324323974680953
3.312705157,0.00650596618652344,0.00650221109390259,0.0142891444265842,0.0169937045276667
3.317705157,0.00861263275146484,-0.000306367874145508,0.0144311226904392,0.0168085872783058
3.322705157,0.017064094543457,-0.00324589014053345,0.00729931518435478,0.0188414205290632
3.327705157,0.0242443084716797,-0.00878959894180298,0.00268023461103439,0.0259273446461046
3.332705157,0.0158281326293945,-0.00517505407333374,-0.00206543877720833,0.0167802563907119
3.337705157,0.0337057113647461,0.00379067659378052,0.000510480254888535,0.0339220399995761
3.342705157,0.029322624206543,-0.00333011150360107,-0.0126411393284798,0.0321045843534314
3.347705157,0.0313377380371094,-0.00996005535125732,-0.0149682443588972,0.0361290031286536
3.352705157,0.0243358612060547,-0.00386166572570801,-0.0157395713031292,0.0292383431066768
3.357705157,0.0191049575805664,-0.00838029384613037,-0.0264989603310823,0.033725711671231
3.362705157,-0.00449371337890625,-0.00543361902236939,-0.0255675353109837,0.0265220010084159
3.367705157,0.00174331665039063,0.000355720520019531,-0.0218843035399914,0.0219565122791023
3.372705157,-0.00958347320556641,-0.0118616819381714,-0.0294003188610077,0.0331198008178352
3.377705157,0.00479221343994141,-0.00529664754867554,-0.0264507886022329,0.0273982481664223
3.382705157,-0.000003814697265625,-0.0179653167724609,-0.0328059308230877,0.0374029640330281
3.387705157,-0.00472259521484375,-0.0114443898200989,-0.0407416597008705,0.0425812141571748
3.392705157,-0.00472450256347656,-0.0144531726837158,0.0113980732858181,0.0190034523107378
3.397705157,-0.0110883712768555,0.000611782073974609,0.015611432492733,0.0191583683896774
3.402705157,-0.0171270370483398,0.00286000967025757,0.0168045610189438,0.0241641950912621
3.407705157,-0.0188226699829102,0.00718837976455689,0.0294173583388329,0.0356559487401519
3.412705157,-0.0101299285888672,0.0140125155448914,0.0381796024739742,0.0419123858803346
3.417705157,-0.016392707824707,0.0139983296394348,0.0215432606637478,0.0304759935448653
3.422705157,-0.0179586410522461,0.0230464339256287,0.01927400380373,0.0350019731980639
3.427705157,-0.00859642028808594,0.0110489726066589,0.0375165827572346,0.0400433792181997
3.432705157,-0.00500106811523438,0.0221651196479797,0.0301883891224861,0.03778415076607
3.437705157,-0.00154399871826172,0.0229239463806152,0.0129814855754375,0.0263895853974368
3.442705157,0.00304126739501953,0.0117267370223999,0.0390877835452557,0.0409221271568487
3.447705157,0.00158023834228516,0.0131073594093323,0.017923541367054,0.0222610278073663
3.452705157,-0.00300884246826172,0.00739568471908569,-0.00022173672914505,0.00798739335703362
3.457705157,0.0126266479492188,-0.0143823027610779,0.0080007016658783,0.02074353148071
3.462705157,0.0143337249755859,-0.00136101245880127,0.00260968506336212,0.0146327879339066
3.467705157,0.0135526657104492,-0.00736278295516968,-0.00276534259319305,0.0156694747953418
3.472705157,0.00577735900878906,-0.00524204969406128,-0.0150445345789194,0.0169468281046261
3.477705157,0.00492000579833984,-0.000990629196166992,-0.00996942445635796,0.0111614169015867
3.482705157,0.013798713684082,0.00315999984741211,-0.00442659854888916,0.0148318870371893
3.487705157,-0.00528335571289063,-0.0101246237754822,-0.0109514780342579,0.015822664924684
3.492705157,-0.0192899703979492,-0.0120185017585754,-0.0218556560575962,0.0315312074647099
3.497705157,-0.00525665283203125,-0.00918787717819214,-0.0326898470520973,0.0343609602067166
3.502705157,0.00787353515625,-0.0122671127319336,-0.0218521133065224,0.0262676505724392
3.507705157,-0.00738048553466797,-0.0100808143615723,-0.0123757850378752,0.0175856316413036
3.512705157,-0.00624465942382813,-0.00824081897735596,0.00109701976180077,0.0103976113167851
3.517705157,-0.0327014923095703,0.00608575344085693,-0.0067143514752388,0.0339338549232007
3.522705157,-0.0546321868896484,0.00352281332015991,0.00530283153057098,0.0550018734251461
3.527705157,-0.0591602325439453,0.00727128982543945,0.00836106389760971,0.0601889704171714
3.532705157,-0.0622310638427734,0.00420939922332764,0.00837646424770355,0.0629332146177021
3.537705157,-0.0817375183105469,0.00175267457962036,0.0161841921508312,0.0833427971892236
3.542705157,-0.0650720596313477,-0.000831007957458496,0.0206357538700104,0.0682707686837835
3.547705157,-0.036677360534668,0.00622266530990601,0.0214953534305096,0.0429651086167793
3.552705157,-0.00634860992431641,0.00303852558135986,0.02818313986063,0.0290486980445517
3.557705157,0.0152492523193359,0.00416529178619385,0.0169808380305767,0.0231999614694419
3.562705157,0.0489864349365234,0.000112712383270264,0.018706988543272,0.0524369615083645
3.567705157,0.061009407043457,-0.00858432054519653,0.010220117866993,0.0624522947235099
3.572705157,0.072169303894043,-0.00353717803955078,0.0172502137720585,0.074286539347421
3.577705157,0.0839309692382813,-0.00515210628509522,0.0120018944144249,0.0849411400087451
3.582705157,0.083277702331543,-0.0056183934211731,0.0169790461659431,0.0851764642313908
3.587705157,0.0734014511108398,0.00212955474853516,0.00131687521934509,0.0734441433263902
3.592705157,0.0522594451904297,0.0166741609573364,0.0112993717193604,0.0560067233151072
3.597705157,0.020237922668457,0.0182347297668457,0.0232240930199623,0.0357971700027278
3.602705157,-0.00227737426757813,0.00917989015579224,0.0137018449604511,0.0166492453927281
3.607705157,-0.0182676315307617,0.00979548692703247,0.00118799135088921,0.0207622072364942
3.612705157,-0.0204858779907227,-0.00387251377105713,-0.0194692760705948,0.0285257825601829
3.617705157,-0.0322074890136719,-0.00779831409454346,-0.00475765764713287,0.033477923435755
3.622705157,-0.0207538604736328,-0.0140693187713623,-0.00766314566135407,0.0262181665391834
3.627705157,-0.0126705169677734,-0.0152539014816284,-0.00414750725030899,0.0202589567113715
3.632705157,-0.00228404998779297,-0.0109056830406189,-0.00689300522208214,0.0131020734206778
3.637705157,0.00165939331054688,-0.0126259326934814,0.00288380309939384,0.0130569553440105
3.642705157,0.00167655944824219,-0.013853132724762,0.00128094479441643,0.0140128854073565
3.647705157,0.00823497772216797,-0.00797194242477417,0.0100207254290581,0.0152243772362973
3.652705157,0.00707530975341797,-0.00698035955429077,-0.000366270542144775,0.00994583237964691
3.657705157,0.0203390121459961,-0.0164210796356201,0.006916593760252,0.0270400913592893
3.662705157,0.0147838592529297,-0.00736725330352783,0.0177514478564262,0.0242477383821295
3.667705157,0.0228605270385742,0.0065842866897583,0.00774085149168968,0.025017540037156
3.672705157,0.0132989883422852,0.00393962860107422,0.0128922425210476,0.0189365699550934
3.677705157,0.00528049468994141,0.00762510299682617,0.0179669335484505,0.0202197062544722
3.682705157,0.00531864166259766,0.00933581590652466,0.0103916265070438,0.0149476188484164
3.687705157,0.0189018249511719,0.0184268355369568,0.00350404158234596,0.0266290360659489
3.692705157,-0.00270366668701172,0.00725513696670532,-0.00495454668998718,0.00919208131292222
3.697705157,-0.000813484191894531,0.0168446898460388,0.00202414393424988,0.0169853610855426
3.702705157,-0.0063323974609375,0.0146651864051819,0.00201445072889328,0.0161004646405362
3.707705157,-0.00833225250244141,0.000418424606323242,-0.00596817955374718,0.0102577131028989
3.712705157,0.000323295593261719,0.0183851718902588,0.0011078454554081,0.0184213568183251
3.717705157,-0.00821685791015625,0.0202203392982483,-0.0188153777271509,0.0288166152465439
3.722705157,-0.00812911987304688,0.00923532247543335,-0.0302984490990639,0.0327012199916788
3.727705157,-0.00413417816162109,0.00414353609085083,-0.00144229084253311,0.00602831015149876
3.732705157,0.00148868560791016,0.00430923700332642,-0.00678825378417969,0.00817716930413369
3.737705157,-0.00566291809082031,-0.00117385387420654,0.000650707632303238,0.0058197933506326
3.742705157,0.0226984024047852,-0.00230705738067627,-0.0229844488203526,0.0323855658135333
3.747705157,0.00563621520996094,0.0148338079452515,0.00430728867650032,0.0164426736205615
3.752705157,0.00377655029296875,-0.00261485576629639,0.00527303665876389,0.00699319085958074
3.757705157,0.000439643859863281,-0.000649034976959229,-0.00272028520703316,0.00283098652989296
3.762705157,-0.00441646575927734,-0.000911116600036621,0.00323731079697609,0.00555116964773636
3.767705157,0.00492477416992188,0.00442773103713989,0.0164634585380554,0.0177455253457386
3.772705157,0.0104284286499023,-0.0115236639976501,-0.00705360807478428,0.0170675230455243
3.777705157,0.00219154357910156,0.00527238845825195,0.0184729695320129,0.0193352410547293
3.782705157,0.00921916961669922,0.000735878944396973,0.00857719406485558,0.0126135983869977
3.787705157,0.00573348999023438,0.00858199596405029,0.0175808928906918,0.0203865484334418
3.792705157,0.00864028930664063,-0.00317275524139404,0.00529218837618828,0.010617355270184
3.797705157,-0.000981330871582031,0.00646930932998657,0.000112809240818024,0.00654428754039622
3.802705157,0.00984477996826172,0.00558459758758545,0.00564488396048546,0.0126480092412244
3.807705157,-0.00334548950195313,0.00332427024841309,-0.0024992823600769,0.00533755421588901
3.812705157,0.00368118286132813,-0.00621575117111206,0.00419319421052933,0.00835281674448408
3.817705157,0.00571537017822266,0.00258517265319824,0.00535929575562477,0.00825049240453069
3.822705157,-0.00237655639648438,0.00497227907180786,0.00413509830832481,0.00688989241520649
3.827705157,-0.015660285949707,-0.00283682346343994,-0.0264614336192608,0.0308787887161375
3.832705157,-0.00878238677978516,-0.0139383673667908,-0.00892799161374569,0.0187381278855834
3.837705157,-0.0103530883789063,0.00175738334655762,0.00285631790757179,0.0108827104710783
3.842705157,-0.00201797485351563,0.0051037073135376,-0.009899090975523,0.0113186595051428
3.847705157,-0.0132503509521484,-0.0044788122177124,-0.000812750309705734,0.0140104290549061
3.852705157,-0.00519847869873047,0.00510227680206299,0.00816180929541588,0.0109394945185215
3.857705157,-0.015498161315918,0.00188827514648438,0.0234135463833809,0.0281416549166849
3.862705157,-0.00822639465332031,0.00508207082748413,0.0256953202188015,0.0274545168239124
3.867705157,-0.012019157409668,0.00375133752822876,0.0146107114851475,0.0192874458700807
3.872705157,-0.00636482238769531,0.0177146196365356,0.010223176330328,0.0214203652437352
3.877705157,0.00170421600341797,0.00959515571594238,0.0214724913239479,0.0235804844957966
3.882705157,0.00626277923583984,0.00498539209365845,0.00970068573951721,0.012576956782197
3.887705157,0.0143594741821289,-0.00322335958480835,0.0186903811991215,0.0237889658280615
3.892705157,-0.00353717803955078,0.00512105226516724,0.0257411450147629,0.0264828878987377
3.897705157,-0.00622653961181641,0.00780022144317627,0.014496173709631,0.0175997813145477
3.902705157,0.00668621063232422,0.000142693519592285,0.00678085163235664,0.00952395521410999
3.907705157,0.00536918640136719,0.00784772634506226,0.00414044782519341,0.0103710307873788
3.912705157,0.00331878662109375,0.0176939368247986,0.00526488944888115,0.0187565670074578
3.917705157,0.0143985748291016,0.00637680292129517,0.00645796954631805,0.0170202215986587
3.922705157,0.00189399719238281,-0.00916510820388794,-0.00816894508898258,0.0124224835528384
3.927705157,0.0143556594848633,-0.00218367576599121,-0.0117272604256868,0.0186649949420889
3.932705157,0.00868034362792969,-0.00776416063308716,-0.0155418980866671,0.0194211521793035
3.937705157,0.00305080413818359,-0.00754684209823608,-0.0192413087934256,0.0208923477768589
3.942705157,0.00787544250488281,-0.00617748498916626,-0.0164983309805393,0.0192971200074652
3.947705157,0.00180244445800781,-0.000705540180206299,-0.0179394986480474,0.0180436195014577
3.952705157,0.00559043884277344,-0.00878375768661499,-0.00951768271625042,0.0141065123201722
3.957705157,0.00209999084472656,-0.000152826309204102,-0.0206146314740181,0.0207218809049347
3.962705157,-0.0106754302978516,-0.0107531547546387,-0.0134899448603392,0.0202872807827093
3.967705157,-0.0133819580078125,-0.00240993499755859,-0.00528468936681747,0.0145880954383726
3.972705157,-0.00970458984375,0.00308626890182495,-0.00298699364066124,0.0106125515677964
3.977705157,-0.021580696105957,0.00421929359436035,0.00893333181738854,0.0237346434608284
3.982705157,-0.0035247802734375,-0.00015556812286377,-0.00774193368852139,0.00850798534638653
3.987705157,-0.00349903106689453,0.00410139560699463,0.0077894814312458,0.00947315603692302
3.992705157,-0.005523681640625,0.00614118576049805,0.0127514004707336,0.0151928744935561
3.997705157,-0.00816726684570313,0.00882339477539063,0.00724435225129128,0.0140369933615465
4.002705157,-0.00442600250244141,0.00512164831161499,0.00547154620289803,0.00870394148819568
4.007705157,0.00116634368896484,0.00852328538894653,0.0055963508784771,0.0102628404731463
4.012705157,0.00455093383789063,0.00876188278198242,0.0278453342616558,0.0295439372600437
4.017705157,-0.00675392150878906,0.00738263130187988,0.0151910744607449,0.0181903118158616
4.022705157,0.00316905975341797,0.00180870294570923,0.0173386037349701,0.0177183951176417
4.027705157,0.0079498291015625,0.00808614492416382,0.00803007185459137,0.0138948759069137
4.032705157,0.0136423110961914,-0.00173574686050415,-0.0103845745325089,0.0172326683200904
4.037705157,0.00631904602050781,-0.00563973188400269,-0.0131567660719156,0.015647281291133
4.042705157,0.00246620178222656,-0.000244021415710449,0.00176272541284561,0.00304120018464332
4.047705157,0.00630569458007813,0.00233620405197144,0.00148209556937218,0.00688594516289718
4.052705157,-0.00364398956298828,0.00570887327194214,-0.0107433404773474,0.0126999708103001
4.057705157,-0.00668239593505859,0.00386065244674683,-0.0100622437894344,0.0126810016491392
4.062705157,-0.00831031799316406,0.00263559818267822,-0.00431855395436287,0.0097292173983721
4.067705157,-0.00356292724609375,-0.00120925903320313,-0.0125457961112261,0.0130978531841976
4.072705157,-0.0162239074707031,-0.00452661514282227,-0.012378828600049,0.020903129329805
4.077705157,-0.00497913360595703,0.0066605806350708,-0.0105170123279095,0.0134075595903076
4.082705157,-0.000897407531738281,0.0106844902038574,-0.00237748771905899,0.0109825370042
4.087705157,-0.00327682495117188,0.00824874639511108,0.0152474939823151,0.0176427172394791
4.092705157,0.000721931457519531,0.00816255807876587,0.013620637357235,0.0158956063563454
4.097705157,0.0204353332519531,0.0175574421882629,0.0262238793075085,0.0375973199476684
4.102705157,0.0113363265991211,0.0147656798362732,0.00977768376469612,0.0210271420214842
4.107705157,-0.0000457763671875,0.00270253419876099,0.0214605778455734,0.021630122238147
4.112705157,0.0104990005493164,0.00725442171096802,0.0188310630619526,0.0227478478748726
4.117705157,-0.0105218887329102,0.0080254077911377,0.0163178816437721,0.0210092973243265
4.122705157,-0.0178642272949219,0.0101182460784912,0.0241892524063587,0.0317274242970977
4.127705157,-0.0218048095703125,0.0150376558303833,0.0113168954849243,0.0288036965802543
4.132705157,0.000484466552734375,0.00738102197647095,0.0202296562492847,0.0215395725403753
4.137705157,-0.00506782531738281,-0.00576102733612061,-0.000781938433647156,0.007712568776293
4.142705157,-0.00800514221191406,-0.00590389966964722,-0.0115183889865875,0.0152187916073705
4.147705157,-0.00454425811767578,0.0136011242866516,-0.00459576398134232,0.0150586158153135
4.152705157,-0.00725746154785156,-0.00400233268737793,0.00494431331753731,0.00965068128377342
4.157705157,-0.0160274505615234,0.00178420543670654,-0.00332844257354736,0.0164663623945258
4.162705157,0.00985908508300781,-0.0165478587150574,0.0124082155525684,0.0229128130077145
4.167705157,0.0191164016723633,-0.00405645370483398,-0.00281797349452972,0.0197441789946928
4.172705157,0.0267877578735352,-0.00529593229293823,-0.00676319003105164,0.0281313279128207
4.177705157,0.0419492721557617,-0.016158401966095,-0.00790426880121231,0.0456433221159228
4.182705157,0.0827360153198242,-0.0139272212982178,0.00610431283712387,0.0841218066811763
4.187705157,0.122988700866699,-0.0214362740516663,-0.00624100118875504,0.124998737921367
4.192705157,0.176474571228027,-0.0261789560317993,-0.000496476888656616,0.178406441919377
4.197705157,0.221199989318848,-0.0333755016326904,-0.00459787622094154,0.223750977315486
4.202705157,0.283171653747559,-0.0315519571304321,0.000247683376073837,0.284924152770422
4.207705157,0.319827079772949,-0.0314430594444275,0.0209202505648136,0.322049194731198
4.212705157,0.358962059020996,-0.0269553065299988,0.0227971933782101,0.360693859654753
4.217705157,0.366230010986328,-0.0356078147888184,0.0122201256453991,0.368159841498051
4.222705157,0.32863712310791,-0.0392906665802002,0.0154447294771671,0.331337674938397
4.227705157,0.307546615600586,-0.0307391881942749,0.0276737175881863,0.310315409065306
4.232705157,0.313051223754883,-0.0256460905075073,0.0186124779284,0.31465094150087
4.237705157,0.288412094116211,-0.0185731053352356,0.0108978301286697,0.289214901026564
4.242705157,0.266083717346191,-0.0290545225143433,0.0109275318682194,0.267888261907899
4.247705157,0.235082626342773,-0.023781955242157,0.0173595435917377,0.236919345679219
4.252705157,0.238637924194336,-0.0142065286636353,-0.00500697270035744,0.239112848036391
4.257705157,0.231400489807129,-0.0214481949806213,0.00217388942837715,0.232402533433164
4.262705157,0.204265594482422,-0.0187715888023376,0.00554828345775604,0.20520133792144
4.267705157,0.15217113494873,-0.00573134422302246,-0.00362406298518181,0.15232214694754
4.272705157,0.121857643127441,-0.00253057479858398,0.0168127678334713,0.123038035418355
4.277705157,0.104413032531738,-0.0113081336021423,-0.00851019844412804,0.105367825855885
4.282705157,0.138608932495117,-0.00720858573913574,-0.00569631904363632,0.138913094870287
4.287705157,0.177310943603516,-0.00359731912612915,-0.0215191934257746,0.178648221687651
4.292705157,0.186482429504395,-0.0160460472106934,-0.00743710249662399,0.18731919986615
4.297705157,0.182877540588379,-0.0112088322639465,-0.0192057862877846,0.184224577620109
4.302705157,0.161923408508301,0.00697946548461914,-0.00828777626156807,0.162285521217263
4.307705157,0.148451805114746,-0.0227091908454895,0.00367972627282143,0.150223786985039
4.312705157,0.16097354888916,-0.0141012668609619,-0.0149972345679998,0.162284460789512
4.317705157,0.172444343566895,-0.00785928964614868,-0.00685589015483856,0.172759437634459
4.322705157,0.171285629272461,-0.0112423896789551,0.0107459500432014,0.171990213568352
4.327705157,0.11369514465332,-0.00357365608215332,-0.011697705835104,0.114351183891281
4.332705157,0.0506973266601563,-0.0088191032409668,0.00725430622696877,0.051967494371925
4.337705157,0.0691061019897461,-0.00962156057357788,0.00313379988074303,0.0698430272953626
4.342705157,0.12482738494873,-0.0180908441543579,0.00676645711064339,0.126312864020993
4.347705157,0.138876914978027,-0.0118795037269592,0.00877618789672852,0.139660093071041
4.352705157,0.118858337402344,-0.0183400511741638,0.0137310177087784,0.121046283273957
4.357705157,0.10127067565918,-0.00658094882965088,0.0145545862615108,0.102522654165843
4.362705157,0.0623302459716797,-0.00809729099273682,0.0144528858363628,0.0644942756631167
4.367705157,-0.0650157928466797,0.00557518005371094,0.0315486676990986,0.0724807173371084
4.372705157,-0.188155174255371,0.00420635938644409,0.0274219289422035,0.190189445672646
4.377705157,-0.24806022644043,0.0131288766860962,0.0298800691962242,0.25019804531588
4.382705157,-0.314907073974609,0.0251691937446594,0.0218996666371822,0.31666946324492
4.387705157,-0.364923477172852,0.0205732583999634,0.0093265175819397,0.365621918220616
4.392705157,-0.310000419616699,0.0246149897575378,0.00784517452120781,0.311075078793788
4.397705157,-0.206319808959961,0.0090630054473877,0.00199099257588387,0.206528365336221
4.402705157,-0.102700233459473,0.000824213027954102,0.00162314996123314,0.102716366249699
4.407705157,-0.0419120788574219,-0.00887304544448853,-0.000865120440721512,0.0428497575604304
4.412705157,-0.0158815383911133,-0.0122853517532349,0.00656194612383843,0.0211237370344661
4.417705157,-0.00938034057617188,-0.00594878196716309,-0.00547364354133606,0.0123830355662669
4.422705157,0.00718212127685547,-0.00662833452224731,0.00668216496706009,0.0118392995240969
4.427705157,0.0447349548339844,-0.00943440198898315,-0.00344354659318924,0.0458484693095398
4.432705157,0.0814189910888672,-0.0133289098739624,-0.0137307867407799,0.083637589951397
4.437705157,0.113934516906738,-0.0106591582298279,-0.0164328720420599,0.115605930126837
4.442705157,0.0743560791015625,-0.0122230052947998,-0.0194349959492683,0.0778199680374041
4.447705157,0.0449666976928711,-0.00763970613479614,-0.00405578687787056,0.0457910298904361
4.452705157,0.0401115417480469,0.00788241624832153,-0.000154711306095123,0.040878994641568
4.457705157,0.00304794311523438,0.00838303565979004,-0.0188491139560938,0.0208531614158819
4.462705157,-0.0291910171508789,0.0148561596870422,-0.0244556572288275,0.0408766453301113
4.467705157,-0.0595979690551758,0.0231930613517761,-0.0243949946016073,0.0684467075320749
4.472705157,-0.0999794006347656,0.0197640061378479,-0.0078960619866848,0.102219588557191
4.477705157,-0.140497207641602,0.0326971411705017,-0.0172224193811417,0.145276220095207
4.482705157,-0.170066833496094,0.033822238445282,-0.0159494448453188,0.174129424451215
4.487705157,-0.220221519470215,0.0324015617370606,-0.000419959425926209,0.222592801336185
4.492705157,-0.252617835998535,0.0358937978744507,-0.00382888689637184,0.255183847775089
4.497705157,-0.244735717773438,0.0452722311019897,0.00807612761855125,0.249018815153279
4.502705157,-0.22037410736084,0.0432760715484619,0.0153323449194431,0.225105855908911
4.507705157,-0.250247955322266,0.0268389582633972,0.0109302438795567,0.25192030298272
4.512705157,-0.34416389465332,0.0591844320297241,0.0205798000097275,0.349821542427083
4.517705157,-0.460487365722656,0.0590490102767944,0.02249376475811,0.46480250543414
4.522705157,-0.524778366088867,0.0635212063789368,0.0173457376658916,0.528893327420483
4.527705157,-0.48898983001709,0.0622124075889587,0.0110339261591434,0.493054951343806
4.532705157,-0.442814826965332,0.0515314936637878,0.00171774253249168,0.445806478709054
4.537705157,-0.410079002380371,0.0536766648292542,-0.00509986653923988,0.413608487798776
4.542705157,-0.382881164550781,0.0367174744606018,0.000565376132726669,0.384638114009388
4.547705157,-0.398700714111328,0.0423192977905273,0.0169032886624336,0.401296528225665
4.552705157,-0.417553901672363,0.0436387658119202,-0.00345741212368011,0.419842299419668
4.557705157,-0.318754196166992,0.0325639843940735,-0.00753291323781014,0.320501786945925
4.562705157,-0.137942314147949,0.0038679838180542,-0.0275930501520634,0.140728176809062
4.567705157,-0.000272750854492188,0.00000607967376708984,-0.0204215478152037,0.020423370073514
4.572705157,0.0852422714233398,-0.00758308172225952,-0.00860812142491341,0.0860107418889226
4.577705157,0.104893684387207,-0.013173520565033,-0.000101793557405472,0.105717723350102
4.582705157,0.0586709976196289,-0.0105438232421875,0.0103135444223881,0.0604965070793146
4.587705157,-0.0404567718505859,-0.00527292490005493,0.0199329666793346,0.0454078989407289
4.592705157,-0.129433631896973,0.00643134117126465,0.0162200294435024,0.130604427836312
4.597705157,-0.167506217956543,0.0113064646720886,0.00629392266273499,0.168005305451853
4.602705157,-0.194167137145996,0.02387535572052,0.00393584743142128,0.195669110115156
4.607705157,-0.288236618041992,0.0372861623764038,0.00319106504321098,0.290655790895614
4.612705157,-0.410730361938477,0.0581966638565064,-0.00374757871031761,0.414849763466642
4.617705157,-0.491484642028809,0.0580412149429321,0.016756433993578,0.495183515539864
4.622705157,-0.484651565551758,0.0606229305267334,0.0144527181982994,0.488642160236648
4.627705157,-0.480984687805176,0.0459296107292175,0.00966677069664002,0.483269330188127
4.632705157,-0.420708656311035,0.0332956910133362,0.0226883739233017,0.422633575152727
4.637705157,-0.33746337890625,0.0145587921142578,0.0367698781192303,0.339772739441457
4.642705157,-0.24634838104248,0.00320053100585938,0.0490357764065266,0.251201663228494
4.647705157,-0.162762641906738,-0.000920593738555908,0.046804703772068,0.169361168478738
4.652705157,-0.0902080535888672,0.00198656320571899,0.0495992973446846,0.102963729840894
4.657705157,0.0261058807373047,-0.0129918456077576,0.0550122782588005,0.0622627964404899
4.662705157,0.0982894897460938,-0.0224943161010742,0.0274854954332113,0.104509667067748
4.667705157,0.124455451965332,-0.0352935194969177,0.0516621991991997,0.139297433100801
4.672705157,0.123650550842285,-0.0380702018737793,0.0613982453942299,0.143208042832101
4.677705157,0.143218994140625,-0.0313857793807983,0.0602984726428986,0.15853281437311
4.682705157,0.182103157043457,-0.0584346652030945,0.0508598349988461,0.197896166508352
4.687705157,0.227558135986328,-0.0604990720748901,0.0686979219317436,0.245279936915425
4.692705157,0.249546051025391,-0.0560948252677918,0.0681991949677467,0.264709257863112
4.697705157,0.291979789733887,-0.060238778591156,0.0593959018588066,0.303988126769484
4.702705157,0.292629241943359,-0.0657435655593872,0.0535167120397091,0.304660677016821
4.707705157,0.217330932617188,-0.0548849701881409,0.0380682423710823,0.227363773064297
4.712705157,0.212113380432129,-0.0563514232635498,0.0271380599588156,0.221142586040096
4.717705157,0.293715476989746,-0.0630179643630981,0.0115635171532631,0.300622288236812
4.722705157,0.470467567443848,-0.0699586272239685,-0.019482534378767,0.476039400349817
4.727705157,0.488715171813965,-0.0651540756225586,-0.0260010957717896,0.493724244606964
4.732705157,0.38862419128418,-0.0563369393348694,-0.0350388549268246,0.39424653979393
4.737705157,0.304715156555176,-0.0529965758323669,-0.0189432837069035,0.30986902343087
4.742705157,0.291424751281738,-0.0666272640228272,0.0295270308852196,0.300398774171412
4.747705157,0.22573184967041,-0.0647023320198059,0.0289855264127255,0.236603931636498
4.752705157,0.136606216430664,-0.0450435280799866,0.0358768254518509,0.14824751058246
4.757705157,0.016148567199707,-0.0356465578079224,0.0490010641515255,0.0627101075915113
4.762705157,-0.0693273544311523,-0.037724494934082,0.0593344196677208,0.0987420525802427
4.767705157,-0.146330833435059,-0.0234043598175049,0.039913572371006,0.153471724208994
4.772705157,-0.266100883483887,-0.0119654536247253,0.0539030730724335,0.271769007721636
4.777705157,-0.311009407043457,-0.0194740295410156,0.0535827428102493,0.316191713084256
4.782705157,-0.350094795227051,-0.00582796335220337,0.0542576052248478,0.354322195927154
4.787705157,-0.35271167755127,-0.00230062007904053,0.0587703883647919,0.357581849207041
4.792705157,-0.333196640014648,0.00137817859649658,0.0757875218987465,0.341709889773252
4.797705157,-0.30497932434082,-0.0122494101524353,0.0864369869232178,0.317228291665215
4.802705157,-0.28028392791748,-0.00995892286300659,0.0767741426825523,0.290779176314405
4.807705157,-0.273749351501465,-0.0111545920372009,0.0917228162288666,0.288922493738275
4.812705157,-0.228921890258789,-0.0139132142066956,0.0838626176118851,0.244196126099362
4.817705157,-0.146842002868652,-0.0195491313934326,0.0870085209608078,0.171799956532306
4.822705157,-0.0851812362670898,-0.0405694246292114,0.0821291357278824,0.125087633929753
4.827705157,-0.0726757049560547,-0.028454601764679,0.0895666182041168,0.118800679917953
4.832705157,-0.0958232879638672,-0.0322299599647522,0.0898918360471726,0.135282722560819
4.837705157,-0.0859203338623047,-0.0325701832771301,0.057589765638113,0.108442158388555
4.842705157,-0.0663604736328125,-0.0275099873542786,0.0777360200881958,0.105846117945611
4.847705157,-0.0838785171508789,-0.022587776184082,0.0748608559370041,0.114673279468206
4.852705157,-0.128978729248047,-0.0186251997947693,0.0740122050046921,0.149867331848848
4.857705157,-0.165566444396973,-0.0292019844055176,0.0862699598073959,0.188964307128742
4.862705157,-0.211182594299316,0.000756978988647461,0.0789717957377434,0.225466639825547
4.867705157,-0.223025321960449,-0.00937259197235107,0.0777292773127556,0.236368314855028
4.872705157,-0.20822811126709,0.0059550404548645,0.0709227621555328,0.220055554395814
4.877705157,-0.170138359069824,0.00489068031311035,0.0765379965305328,0.186625413311814
4.882705157,-0.138628005981445,0.00564432144165039,0.0599818229675293,0.151153569238164
4.887705157,-0.0837945938110352,-0.00745594501495361,0.0562028288841248,0.101172540951587
4.892705157,0.00276947021484375,-0.0144497752189636,0.047909215092659,0.0501174506528828
4.897705157,0.0765314102172852,-0.0230963826179504,0.0602313093841076,0.100091509480101
4.902705157,0.142478942871094,-0.0405506491661072,0.0505974665284157,0.156539796628689
4.907705157,0.205495834350586,-0.050402045249939,0.0470305234193802,0.216750488428334
4.912705157,0.273372650146484,-0.06375652551651,0.0418925024569035,0.283817691760312
4.917705157,0.358880996704102,-0.0793417096138001,0.0512446723878384,0.371101998280671
4.922705157,0.425344467163086,-0.0721005797386169,0.0487844981253147,0.434161648009394
4.927705157,0.437009811401367,-0.0884094834327698,0.0690112411975861,0.451172210395919
4.932705157,0.445101737976074,-0.0880605578422546,0.0832793489098549,0.461308648251537
4.937705157,0.407864570617676,-0.087175726890564,0.0818771943449974,0.425037633954745
4.942705157,0.358302116394043,-0.0865421891212463,0.0659076794981957,0.37445130434702
4.947705157,0.324377059936523,-0.0816779136657715,0.0703263729810715,0.341815092309466
4.952705157,0.326610565185547,-0.0940394997596741,0.0579225048422813,0.344779502541952
4.957705157,0.287832260131836,-0.0804941058158875,0.0469628423452377,0.302542921921574
4.962705157,0.234444618225098,-0.0679291486740112,0.0546656996011734,0.250133938055541
4.967705157,0.183039665222168,-0.0607309341430664,0.0667356550693512,0.204072078109839
4.972705157,0.119875907897949,-0.0460897088050842,0.0599750988185406,0.141744513228515
4.977705157,0.0647420883178711,-0.0499072670936585,0.0717466622591019,0.108765145399794
4.982705157,0.0225305557250977,-0.0449572801589966,0.0578985214233398,0.0766878201775561
4.987705157,-0.00458145141601563,-0.0275982022285461,0.0592858269810677,0.0655550131123023
4.992705157,-0.0647544860839844,-0.0161294341087341,0.0631863176822662,0.0919011036653706
4.997705157,-0.146283149719238,-0.00724697113037109,0.0710530206561089,0.162787623075905
5.002705157,-0.20098876953125,-0.0106932520866394,0.0764523074030876,0.215303939641453
5.007705157,-0.219595909118652,-0.00768119096755981,0.0666452720761299,0.229614799798334
5.012705157,-0.199429512023926,-0.00950157642364502,0.0714529231190682,0.212056432212972
5.017705157,-0.178322792053223,-0.0146992206573486,0.0818547457456589,0.196762000027131
5.022705157,-0.198213577270508,-0.00842475891113281,0.0876081436872482,0.216875046092002
5.027705157,-0.20228099822998,-0.0023614764213562,0.0751890540122986,0.215816062097033
5.032705157,-0.189521789550781,-0.00356215238571167,0.0895544365048409,0.209645402386623
5.037705157,-0.148377418518066,-0.000233113765716553,0.0713392868638039,0.164636589245372
5.042705157,-0.133024215698242,-0.0143463015556335,0.065732978284359,0.149070730744133
5.047705157,-0.138529777526855,-0.00958901643753052,0.0594681389629841,0.151059286538763
5.052705157,-0.15965461730957,-0.00500762462615967,0.0611345358192921,0.17103246651587
5.057705157,-0.187107086181641,-0.000446081161499023,0.0574462786316872,0.195727707840295
5.062705157,-0.214842796325684,0.000276148319244385,0.0486670844256878,0.220286151397291
5.067705157,-0.264675140380859,0.00451236963272095,0.0408082529902458,0.267840633451024
5.072705157,-0.299468994140625,0.00193935632705688,0.0497985668480396,0.303587445087375
5.077705157,-0.336745262145996,0.00706106424331665,0.0478647574782372,0.340203270434713
5.082705157,-0.331682205200195,0.0104159116744995,0.0274633131921291,0.332980194657226
5.087705157,-0.304157257080078,0.00281018018722534,0.00895210355520248,0.304301945943868
5.092705157,-0.292974472045898,0.00355660915374756,0.0122696533799171,0.293252851875832
5.097705157,-0.285202980041504,0.00803077220916748,-0.00497277081012726,0.285359355158299
5.102705157,-0.268604278564453,0.000865042209625244,0.012984998524189,0.268919350266633
5.107705157,-0.206732749938965,-0.0010066032409668,0.00277090817689896,0.206753769202731
5.112705157,-0.118840217590332,0.000169157981872559,-0.00837034732103348,0.119134749949857
5.117705157,-0.0333318710327148,-0.0126404762268066,-0.0269264951348305,0.0446747289418531
5.122705157,0.0153036117553711,-0.0192631483078003,-0.0162777677178383,0.0294997480898285
5.127705157,0.0376205444335938,-0.0193422436714172,-0.0248948484659195,0.049083410984421
5.132705157,0.0389070510864258,-0.0136702656745911,-0.0262956209480762,0.0489090428131706
5.137705157,0.0627641677856445,-0.0187376737594605,-0.0235379040241241,0.0696022564403583
5.142705157,0.0598850250244141,-0.018442690372467,-0.0349007919430733,0.0717245726972498
5.147705157,0.0159769058227539,-0.0133065581321716,-0.0451719425618649,0.0497275618124037
5.152705157,-0.0570745468139648,0.00329089164733887,-0.0608065016567707,0.0834611556689029
5.157705157,-0.0843296051025391,-0.000980079174041748,-0.0734370648860931,0.111827748573517
5.162705157,-0.120706558227539,-0.00763612985610962,-0.0645887851715088,0.13711343788356
5.167705157,-0.130913734436035,-0.00370687246322632,-0.0744470059871674,0.150646949746421
5.172705157,-0.152467727661133,0.00917577743530273,-0.0957279950380325,0.180262175465884
5.177705157,-0.177375793457031,0.0112791657447815,-0.0987641513347626,0.203331623888872
5.182705157,-0.17598819732666,0.0246430635452271,-0.119414255023003,0.214100187953865
5.187705157,-0.172348022460938,0.0268586277961731,-0.135119184851646,0.220640931942064
5.192705157,-0.154253005981445,0.0170626640319824,-0.144323140382767,0.211929925230308
5.197705157,-0.159610748291016,0.0200105309486389,-0.165944457054138,0.231113771000036
5.202705157,-0.178102493286133,0.0230025053024292,-0.166198149323463,0.244686407884601
5.207705157,-0.180240631103516,0.0186381936073303,-0.187082841992378,0.26044972092418
5.212705157,-0.155107498168945,0.0291343927383423,-0.201606497168541,0.256031889672029
5.217705157,-0.118328094482422,0.0282449126243591,-0.193340048193932,0.228428735645563
5.222705157,-0.0619583129882813,0.027580201625824,-0.197625771164894,0.208938855885147
5.227705157,-0.00829315185546875,0.0236337184906006,-0.206148475408554,0.207664447921791
5.232705157,0.0538225173950195,0.0147305130958557,-0.1991266310215,0.206797646448834
5.237705157,0.125431060791016,0.0216966271400452,-0.18855382502079,0.227499977077767
5.242705157,0.201107025146484,0.0234852433204651,-0.202935039997101,0.286667442650391
5.247705157,0.256593704223633,0.00262409448623657,-0.214042440056801,0.334157718846276
5.252705157,0.308667182922363,-0.00061643123626709,-0.18394336104393,0.359320149550278
5.257705157,0.321142196655273,-0.00308269262313843,-0.178060650825501,0.367215752438242
5.262705157,0.320748329162598,-0.00207072496414185,-0.168297111988068,0.362226029525764
5.267705157,0.321946144104004,-0.00308090448379517,-0.142406299710274,0.352048811776218
5.272705157,0.338954925537109,0.00129139423370361,-0.145762085914612,0.368969775096976
5.277705157,0.324226379394531,0.00858908891677856,-0.138327598571777,0.352606072083766
5.282705157,0.30170726776123,-0.00357198715209961,-0.114544928073883,0.32273917496891
5.287705157,0.283860206604004,-0.00420248508453369,-0.10970862954855,0.304352199222503
5.292705157,0.272061347961426,-0.000539660453796387,-0.104313738644123,0.291374371484363
5.297705157,0.290094375610352,0.00427258014678955,-0.12297323346138,0.315111754540857
5.302705157,0.33613395690918,-0.00909090042114258,-0.10694831609726,0.352854961384885
5.307705157,0.383937835693359,-0.0168265700340271,-0.0980165749788284,0.396608930946583
5.312705157,0.429681777954102,-0.0196601748466492,-0.104429021477699,0.44262667487126
5.317705157,0.473825454711914,-0.0307831764221191,-0.097883328795433,0.484808530803308
5.322705157,0.523994445800781,-0.0418280363082886,-0.0994307547807694,0.534982465925519
5.327705157,0.600895881652832,-0.0675668120384216,-0.101579152047634,0.613155330081282
5.332705157,0.685262680053711,-0.063507616519928,-0.0922921746969223,0.694360139654289
5.337705157,0.757350921630859,-0.0710631012916565,-0.0853179544210434,0.765447278528634
5.342705157,0.790574073791504,-0.0750672817230225,-0.0600157156586647,0.796394593818039
5.347705157,0.777299880981445,-0.0750145316123962,-0.0430604182183743,0.782097490434497
5.352705157,0.730928421020508,-0.0774229168891907,-0.0285402201116085,0.735571348598613
5.357705157,0.667829513549805,-0.0854519605636597,-0.0000665336847305298,0.673274313455573
5.362705157,0.583251953125,-0.0788131356239319,-0.0118611305952072,0.588672266707036
5.367705157,0.523778915405273,-0.0649029612541199,0.0187628120183945,0.528118158859848
5.372705157,0.405527114868164,-0.0575971603393555,0.0331372953951359,0.41093521888317
5.377705157,0.260274887084961,-0.0339305400848389,0.0451441556215286,0.266331172010185
5.382705157,0.121059417724609,-0.0259610414505005,0.0472755767405033,0.132530518934935
5.387705157,0.0333185195922852,-0.0239057540893555,0.0523434802889824,0.0664939753298396
5.392705157,-0.0934638977050781,0.00605934858322144,0.06533183157444,0.11419485144414
5.397705157,-0.0688467025756836,-0.0108327865600586,0.0882092043757439,0.112419221918683
5.402705157,-0.0227718353271484,-0.0130300521850586,0.0796838104724884,0.0838918851589805
5.407705157,-0.0312013626098633,0.00366485118865967,0.108107656240463,0.112579845002351
5.412705157,-0.206341743469238,0.00985980033874512,0.122175805270672,0.240002204477755
5.417705157,-0.303329467773438,0.0422463417053223,0.11691702902317,0.327815666316918
5.422705157,-0.263199806213379,0.0409685373306274,0.0998354107141495,0.284463825950215
5.427705157,-0.208392143249512,0.0428596138954163,0.0740734413266182,0.225280062547393
5.432705157,-0.312939643859863,0.0532020330429077,0.0808914750814438,0.327574583507159
5.437705157,-0.438179016113281,0.0500974059104919,0.102258361876011,0.452733224774291
5.442705157,-0.536792755126953,0.0661920309066773,0.112577937543392,0.552450576010071
5.447705157,-0.588764190673828,0.0735389590263367,0.0914092063903809,0.600338982348643
5.452705157,-0.683026313781738,0.0954658389091492,0.0838290005922318,0.69474165922103
5.457705157,-0.732470512390137,0.0951000452041626,0.0639207065105438,0.741379070947994
5.462705157,-0.732758522033691,0.0988679528236389,0.0637797638773918,0.742144043962352
5.467705157,-0.737190246582031,0.089884877204895,0.0627268254756928,0.745294173759646
5.472705157,-0.764064788818359,0.0946277379989624,0.052373968064785,0.771681568292062
5.477705157,-0.683403015136719,0.0848761796951294,0.0464676395058632,0.690219449522284
5.482705157,-0.624944686889648,0.092288076877594,0.0535390749573708,0.633986895253093
5.487705157,-0.474729537963867,0.0674660801887512,0.0634121298789978,0.483674378489509
5.492705157,-0.379403114318848,0.0597875714302063,0.0665459781885147,0.389807188319339
5.497705157,-0.347325325012207,0.0544974207878113,0.0806527733802795,0.360707249887343
5.502705157,-0.339367866516113,0.0595505833625793,0.0685933828353882,0.351314492970791
5.507705157,-0.304161071777344,0.0528308153152466,0.0831002816557884,0.319704096693939
5.512705157,-0.211667060852051,0.0371048450469971,0.0960060209035873,0.235365397255942
5.517705157,-0.252700805664063,0.0399306416511536,0.10714502632618,0.277366562498757
5.522705157,-0.329145431518555,0.0448006391525269,0.111694969236851,0.350456243361181
5.527705157,-0.371808052062988,0.0524471998214722,0.12902107834816,0.397036994505687
5.532705157,-0.34305477142334,0.0355355143547058,0.127432689070702,0.367679805293361
5.537705157,-0.335259437561035,0.0528413653373718,0.142156451940537,0.367966788165428
5.542705157,-0.341514587402344,0.0489593148231506,0.134259074926376,0.370209031651892
5.547705157,-0.341974258422852,0.0485057234764099,0.148027926683426,0.375781140708289
5.552705157,-0.288983345031738,0.0530387163162231,0.152681559324265,0.331113481591877
5.557705157,-0.256552696228027,0.0410342216491699,0.138484880328178,0.294416635684422
5.562705157,-0.241786003112793,0.0451868772506714,0.148186177015305,0.287161049300454
5.567705157,-0.21773624420166,0.0425392389297485,0.121190711855888,0.252796059162132
5.572705157,-0.170356750488281,0.0336759090423584,0.136479213833809,0.220866622864231
5.577705157,-0.128024101257324,0.0365754365921021,0.113407909870148,0.174897933337601
5.582705157,-0.11257266998291,0.0409318208694458,0.099622406065464,0.155796802846021
5.587705157,-0.0818338394165039,0.0305426716804504,0.0915334522724152,0.126522744800816
5.592705157,-0.0494050979614258,0.0286142826080322,0.0736415907740593,0.0931811395373786
5.597705157,-0.0566005706787109,0.0297563672065735,0.100789301097393,0.119363098176066
5.602705157,-0.0682868957519531,0.0401625037193298,0.0828837603330612,0.114655329415565
5.607705157,-0.0765714645385742,0.0478902459144592,0.0739398896694183,0.116720915519264
5.612705157,-0.059351921081543,0.0426673293113709,0.0778670459985733,0.106800881921352
5.617705157,-0.0381488800048828,0.0347741842269897,0.0722698643803597,0.0888116784653637
5.622705157,-0.0254974365234375,0.0305303931236267,0.059412095695734,0.0714984006010552
5.627705157,0.00903129577636719,0.0440384745597839,0.0804365873336792,0.0921466012766698
5.632705157,0.0854320526123047,0.0358437299728394,0.0787403807044029,0.121587236770114
5.637705157,0.197812080383301,0.0207827091217041,0.0881660729646683,0.217565614392574
5.642705157,0.301370620727539,0.0203379392623901,0.0777284950017929,0.31189678059638
5.647705157,0.411446571350098,0.0155919790267944,0.0883089229464531,0.421105517367899
5.652705157,0.489928245544434,-0.00634825229644775,0.115553617477417,0.503410989750505
5.657705157,0.558422088623047,-0.00574535131454468,0.124038413167,0.572060981071809
5.662705157,0.581280708312988,-0.0117608904838562,0.138286024332047,0.597619113589405
5.667705157,0.60175895690918,-0.00980377197265625,0.131282687187195,0.6159911526316
5.672705157,0.618610382080078,-0.00520533323287964,0.131172522902489,0.632386061734388
5.677705157,0.631546974182129,-0.00558435916900635,0.132379651069641,0.645296162768113
5.682705157,0.62889289855957,-0.00935864448547363,0.133790016174316,0.643034703972645
5.687705157,0.597078323364258,-0.0096060037612915,0.106916554272175,0.606651423073556
5.692705157,0.558150291442871,0.00841617584228516,0.099682129919529,0.567044184238639
5.697705157,0.486636161804199,0.00890278816223145,0.101205855607986,0.497128392693406
5.702705157,0.421926498413086,0.00788557529449463,0.0864583104848862,0.430765820153774
5.707705157,0.35905933380127,0.0186693668365479,0.0534393340349197,0.363494034160101
5.712705157,0.341781616210938,0.0144075155258179,0.0417025834321976,0.344617694189237
5.717705157,0.33920955657959,0.0184282064437866,0.0193144120275974,0.340258385024717
5.722705157,0.346076965332031,0.0364676713943481,0.00150691345334053,0.347996304259844
5.727705157,0.38649845123291,0.0126821398735046,-0.0122911371290684,0.386901746609052
5.732705157,0.455242156982422,0.0123934149742126,-0.0429686270654202,0.457433406235944
5.737705157,0.551283836364746,0.0104427337646484,-0.072573147714138,0.556138274797419
5.742705157,0.671883583068848,-0.00803107023239136,-0.0775081291794777,0.676387135725846
5.747705157,0.787322998046875,-0.0111584663391113,-0.105187475681305,0.794396890518062
5.752705157,0.869309425354004,-0.0221233367919922,-0.111102439463139,0.876659609594728
5.757705157,0.866190910339356,-0.0106983780860901,-0.118721105158329,0.874354532931699
5.762705157,0.818968772888184,-0.00848931074142456,-0.120804227888584,0.827874133451818
5.767705157,0.698370933532715,0.00247687101364136,-0.10431069880724,0.706122381446041
5.772705157,0.550422668457031,0.0190006494522095,-0.115587428212166,0.562749137886205
5.777705157,0.283133506774902,0.0421869158744812,-0.112377531826496,0.307527280398129
5.782705157,0.0480947494506836,0.0731269121170044,-0.098908394575119,0.132073921414939
5.787705157,-0.121429443359375,0.089729905128479,-0.082769013941288,0.172183841453682
5.792705157,-0.235538482666016,0.103564321994782,-0.0911289006471634,0.272962309009886
5.797705157,-0.371560096740723,0.105686604976654,-0.0718361586332321,0.392921108682959
5.802705157,-0.536807060241699,0.124730050563812,-0.0399802774190903,0.55255572390619
5.807705157,-0.647896766662598,0.145485520362854,-0.0433833599090576,0.665445995407665
5.812705157,-0.620756149291992,0.149525284767151,-0.0379628725349903,0.639638325430573
5.817705157,-0.513525009155273,0.136484742164612,-0.04984200745821,0.533685530606863
5.822705157,-0.392523765563965,0.131715416908264,-0.0437989011406899,0.41634384987047
5.827705157,-0.319295883178711,0.127730071544647,-0.0598951876163483,0.349073438822365
5.832705157,-0.292601585388184,0.114736437797546,-0.0318971909582615,0.31590753191587
5.837705157,-0.392421722412109,0.128214776515961,-0.0357217043638229,0.414378905472492
5.842705157,-0.543475151062012,0.134097158908844,-0.0436759628355503,0.561475625097753
5.847705157,-0.531933784484863,0.147782921791077,-0.0486389920115471,0.554219356025569
5.852705157,-0.271742820739746,0.12220573425293,-0.0766617953777313,0.307661230866726
5.857705157,0.0628328323364258,0.0806607604026794,-0.097828283905983,0.141507936951061
5.862705157,0.208101272583008,0.0657506585121155,-0.106587320566177,0.24287887032618
5.867705157,0.1739501953125,0.0720651745796204,-0.0922478809952736,0.209670530558222
5.872705157,0.0979804992675781,0.0884358882904053,-0.100303843617439,0.165776794572909
5.877705157,0.0529165267944336,0.08759605884552,-0.106567874550819,0.147749586190734
5.882705157,0.020899772644043,0.09157794713974,-0.140029460191727,0.168616638029846
5.887705157,0.00627899169921875,0.0917604565620422,-0.156813681125641,0.181796418318424
5.892705157,-0.0817203521728516,0.0970457792282105,-0.136515066027641,0.186366473588456
5.897705157,-0.265287399291992,0.126186728477478,-0.108522184193134,0.313173369124845
5.902705157,-0.468313217163086,0.1424400806427,-0.107249245047569,0.501107619685046
5.907705157,-0.618732452392578,0.14838570356369,-0.100793220102787,0.644210709228366
5.912705157,-0.690711975097656,0.150206923484802,-0.0863477885723114,0.712110309571069
5.917705157,-0.766848564147949,0.176792979240417,-0.10195068269968,0.793540433467259
5.922705157,-0.842630386352539,0.165060043334961,-0.0806433111429215,0.862423405029376
5.927705157,-0.893351554870606,0.176110029220581,-0.0665286406874657,0.912971961789366
5.932705157,-0.902266502380371,0.175180673599243,-0.047530472278595,0.920343552981939
5.937705157,-0.88664436340332,0.168243110179901,-0.0292710047215223,0.902940066114741
5.942705157,-0.831694602966309,0.163592517375946,-0.0353452078998089,0.848367672690424
5.947705157,-0.773249626159668,0.14875203371048,-0.0338868647813797,0.788156375025782
5.952705157,-0.715557098388672,0.14586216211319,-0.0480556972324848,0.731851816577133
5.957705157,-0.79033088684082,0.152073442935944,-0.0375028029084206,0.805701993895371
5.962705157,-0.879151344299316,0.14972186088562,-0.0169226564466953,0.891969785425247
5.967705157,-0.701441764831543,0.126133799552917,-0.0551895871758461,0.714825975585866
5.972705157,-0.33073902130127,0.0985031127929688,-0.0804966539144516,0.354359809702863
5.977705157,-0.0584783554077148,0.068884551525116,-0.0688772201538086,0.113617212367333
5.982705157,0.0570487976074219,0.0625972747802734,-0.103480026125908,0.133720230052854
5.987705157,0.187105178833008,0.045045018196106,-0.0921500027179718,0.213375313968935
5.992705157,0.271492004394531,0.0426844954490662,-0.0991399958729744,0.292161964299932
5.997705157,0.282256126403809,0.0309199690818787,-0.140833213925362,0.316951982995932
6.002705157,0.339065551757813,0.032845675945282,-0.191012352705002,0.390550900271696
6.007705157,0.524085998535156,0.00768554210662842,-0.201137036085129,0.56141010741095
6.012705157,0.598917961120606,0.00129932165145874,-0.216023951768875,0.636687333098012
6.017705157,0.524194717407227,0.0142467617988586,-0.222556456923485,0.569661696533768
6.022705157,0.430681228637695,0.0214430093765259,-0.225283160805702,0.486516830021947
6.027705157,0.364980697631836,0.0339271426200867,-0.233493849635124,0.434604807230218
6.032705157,0.274852752685547,0.0540785789489746,-0.237427532672882,0.36720615685347
6.037705157,0.115574836730957,0.0559948682785034,-0.261775344610214,0.291580690726788
6.042705157,0.0318422317504883,0.0737900137901306,-0.241616934537888,0.254632356375786
6.047705157,-0.0340251922607422,0.0901799201965332,-0.233212620019913,0.252345512842186
6.052705157,-0.147485733032227,0.111513435840607,-0.237334996461868,0.300857421990193
6.057705157,-0.25615406036377,0.128896832466126,-0.24250453710556,0.375549925545763
6.062705157,-0.314967155456543,0.131052076816559,-0.222382500767708,0.407225898614048
6.067705157,-0.297226905822754,0.130197107791901,-0.212072998285294,0.387646845755332
6.072705157,-0.279404640197754,0.116633415222168,-0.225292533636093,0.377395061205884
6.077705157,-0.246694564819336,0.122041285037994,-0.234210088849068,0.361395419566733
6.082705157,-0.155965805053711,0.124768912792206,-0.221929952502251,0.298572466518687
6.087705157,-0.039790153503418,0.118315279483795,-0.22745555639267,0.259456724347343
6.092705157,0.0688285827636719,0.103545784950256,-0.227894559502602,0.259605534681187
6.097705157,0.16124153137207,0.0801236033439636,-0.241989850997925,0.301625117054315
6.102705157,0.28138256072998,0.0539983510971069,-0.245704352855682,0.37744217625538
6.107705157,0.39015007019043,0.0486058592796326,-0.246646165847778,0.464127070911963
6.112705157,0.459095001220703,0.0359418392181397,-0.26568004488945,0.531644544977827
6.117705157,0.511280059814453,0.0300281047821045,-0.278881132602692,0.583166933872657
6.122705157,0.5465087890625,0.0173647999763489,-0.306466281414032,0.626813348968035
6.127705157,0.594953536987305,-0.00146210193634033,-0.301636457443237,0.66705052385459
6.132705157,0.622700691223145,-0.0103210806846619,-0.314203649759293,0.697557602695535
6.137705157,0.645986557006836,-0.0171022415161133,-0.333726972341538,0.727299670401872
6.142705157,0.663182258605957,-0.0265535712242126,-0.338105380535126,0.744869819915708
6.147705157,0.637508392333984,-0.0303215384483337,-0.342583626508713,0.724361710157292
6.152705157,0.580264091491699,-0.0292081832885742,-0.350739538669586,0.678658793379899
6.157705157,0.568696975708008,-0.0334998965263367,-0.339454263448715,0.663149824866311
6.162705157,0.558871269226074,-0.0338194966316223,-0.330990970134735,0.650412081860041
6.167705157,0.546804428100586,-0.0351048707962036,-0.313095360994339,0.631075383468728
6.172705157,0.531405448913574,-0.0405759811401367,-0.301309198141098,0.612229854111145
6.177705157,0.531403541564941,-0.034420907497406,-0.309775739908218,0.616064551728463
6.182705157,0.524130821228027,-0.0462164878845215,-0.256865531206131,0.585515996908158
6.187705157,0.492233276367188,-0.0340049862861633,-0.227765873074532,0.543440181062186
6.192705157,0.447908401489258,-0.0436977744102478,-0.190403878688812,0.488656391171562
6.197705157,0.371597290039063,-0.040075421333313,-0.195212990045547,0.421661827584548
6.202705157,0.314645767211914,-0.0245453715324402,-0.16431026160717,0.355812164150491
6.207705157,0.276493072509766,-0.0159622430801392,-0.142454594373703,0.31144264930837
6.212705157,0.225942611694336,-0.0209710001945496,-0.106363482773304,0.250605341315951
6.217705157,0.188352584838867,-0.0240519046783447,-0.116437211632729,0.222739342252202
6.222705157,0.125307083129883,-0.00561928749084473,-0.103308714926243,0.162499637089243
6.227705157,0.0453805923461914,0.00405377149581909,-0.0843676775693893,0.095883972818631
6.232705157,-0.0187501907348633,0.0134044289588928,-0.0854296386241913,0.0884843010017465
6.237705157,-0.0672721862792969,0.0160541534423828,-0.0771077424287796,0.10358033998791
6.242705157,-0.0925016403198242,0.0241600871086121,-0.077026940882206,0.122773828207093
6.247705157,-0.147939682006836,0.0336951017379761,-0.0537623316049576,0.160971729483837
6.252705157,-0.183631896972656,0.0389787554740906,-0.0529774129390717,0.195055436340037
6.257705157,-0.243122100830078,0.0465282201766968,-0.0589753277599812,0.254462807634513
6.262705157,-0.29133129119873,0.050323486328125,-0.0506427474319935,0.299951766747918
6.267705157,-0.323801040649414,0.0463846921920776,-0.0726899802684784,0.335085790249048
6.272705157,-0.352787017822266,0.0500153303146362,-0.0393470153212547,0.358480684033465
6.277705157,-0.353957176208496,0.0502989888191223,-0.0550029799342155,0.361719502746759
6.282705157,-0.406583786010742,0.046457827091217,-0.0301399547606707,0.410337814023813
6.287705157,-0.425128936767578,0.0432485342025757,-0.0172034166753292,0.427669271906584
6.292705157,-0.419330596923828,0.0528886914253235,0.0131570436060429,0.422857506724935
6.297705157,-0.407210350036621,0.0549559593200684,0.0284145548939705,0.411883252356246
6.302705157,-0.47645378112793,0.0369323492050171,0.0233334396034479,0.47845235224903
6.307705157,-0.500616073608398,0.045848548412323,0.0487378612160683,0.505068234659955
6.312705157,-0.468226432800293,0.0399510264396668,0.0759138464927673,0.476019945985247
6.317705157,-0.436006546020508,0.0197874903678894,0.0938041061162949,0.446421844528322
6.322705157,-0.367973327636719,0.013272225856781,0.117008537054062,0.386356725805007
6.327705157,-0.238597869873047,0.00314414501190186,0.125336527824402,0.269533067290246
6.332705157,-0.0806331634521484,0.000417232513427734,0.153614595532417,0.173491570665146
6.337705157,0.0163125991821289,-0.0270419120788574,0.173810184001923,0.176656010267807
6.342705157,0.0634450912475586,-0.0320272445678711,0.202993795275688,0.215075579549258
6.347705157,0.0881843566894531,-0.0434783697128296,0.223745167255402,0.244394658836411
6.352705157,0.0861349105834961,-0.0389631986618042,0.228547185659409,0.247328060971703
6.357705157,0.0642337799072266,-0.0446971654891968,0.217131778597832,0.230802999029468
6.362705157,0.0550193786621094,-0.0444949865341187,0.207451850175858,0.219187604568375
6.367705157,0.0291519165039063,-0.0311082005500793,0.214092016220093,0.218295546877391
6.372705157,-0.00299453735351563,-0.0354214310646057,0.206707611680031,0.209741940868031
6.377705157,-0.0794363021850586,-0.0244833827018738,0.203133404254913,0.219482896959085
6.382705157,-0.147359848022461,-0.0246500372886658,0.199301451444626,0.249085563000889
6.387705157,-0.188372611999512,-0.0200733542442322,0.180815935134888,0.261880856308431
6.392705157,-0.214054107666016,-0.0121815800666809,0.165219768881798,0.270675310900292
6.397705157,-0.230631828308105,-0.00255739688873291,0.16281470656395,0.282322881079609
6.402705157,-0.224419593811035,0.000314891338348389,0.16487991809845,0.27847736108168
6.407705157,-0.157084465026855,-0.0101703405380249,0.153330460190773,0.219748026161208
6.412705157,-0.0880708694458008,-0.00653815269470215,0.171782076358795,0.193153584599762
6.417705157,-0.0171785354614258,-0.021295428276062,0.168195053935051,0.170405908096741
6.422705157,0.0413675308227539,-0.0143303871154785,0.192586734890938,0.197500083689105
6.427705157,0.106273651123047,-0.0170703530311584,0.187929898500443,0.216571310717782
6.432705157,0.124348640441895,-0.0257205367088318,0.208026066422462,0.243719048700631
6.437705157,0.0946311950683594,-0.0161033868789673,0.214629426598549,0.235117359867496
6.442705157,0.0354757308959961,-0.00403237342834473,0.209818154573441,0.212834314683218
6.447705157,-0.0217170715332031,0.00576579570770264,0.24176213145256,0.242804044036763
6.452705157,-0.0981988906860352,0.0191640853881836,0.220709383487701,0.242328116941173
6.457705157,-0.167800903320313,0.0279406309127808,0.229246467351913,0.28546762479176
6.462705157,-0.25922966003418,0.0440744161605835,0.220471903681755,0.343147826911944
6.467705157,-0.358854293823242,0.0482521057128906,0.216613158583641,0.421931191514312
6.472705157,-0.442524909973145,0.0651715397834778,0.220424205064774,0.498660661896371
6.477705157,-0.497669219970703,0.0560666918754578,0.214685350656509,0.544892582286283
6.482705157,-0.515952110290527,0.0657640695571899,0.213220611214638,0.562133900422947
6.487705157,-0.469667434692383,0.063528835773468,0.206996291875839,0.517175866640743
6.492705157,-0.384232521057129,0.0501930713653564,0.188255488872528,0.430806341343346
6.497705157,-0.248488426208496,0.0330851078033447,0.175269722938538,0.305876769462615
6.502705157,-0.0338630676269531,0.020330548286438,0.186651915311813,0.190785156739992
6.507705157,0.178443908691406,-0.0135170221328735,0.159405052661896,0.239655814138838
6.512705157,0.334429740905762,-0.0281793475151062,0.159449487924576,0.371566234241059
6.517705157,0.461826324462891,-0.0458304882049561,0.138411313295364,0.484295033284624
6.522705157,0.556308746337891,-0.0657203197479248,0.133970066905022,0.575974444317056
6.527705157,0.607808113098145,-0.0683668255805969,0.122754625976086,0.623837657877771
6.532705157,0.637638092041016,-0.0741802453994751,0.110634028911591,0.651402282451055
6.537705157,0.610530853271484,-0.0734847187995911,0.106132179498672,0.624028818419951
6.542705157,0.578859329223633,-0.0882667899131775,0.1024269759655,0.594441279384472
6.547705157,0.521925926208496,-0.0875002145767212,0.114614516496658,0.541478944550323
6.552705157,0.45909595489502,-0.0819434523582459,0.115691535174847,0.480487623666282
6.557705157,0.387513160705566,-0.0741938948631287,0.110105663537979,0.409627197459004
6.562705157,0.336871147155762,-0.0879630446434021,0.117549978196621,0.367474712576256
6.567705157,0.280023574829102,-0.0709587335586548,0.138837158679962,0.320506007679486
6.572705157,0.237339973449707,-0.0731147527694702,0.132422387599945,0.281445765303581
6.577705157,0.239824295043945,-0.0796380639076233,0.123561665415764,0.281292372588731
6.582705157,0.265578269958496,-0.0720714926719666,0.125767379999161,0.302561648927894
6.587705157,0.285613059997559,-0.0766597390174866,0.12854677438736,0.322452800938049
6.592705157,0.321942329406738,-0.0860708951950073,0.145531266927719,0.363640498455678
6.597705157,0.353946685791016,-0.0725526809692383,0.149203181266785,0.39090118597722
6.602705157,0.395100593566895,-0.0969775915145874,0.135140836238861,0.42868657304868
6.607705157,0.437945365905762,-0.0882897973060608,0.126349851489067,0.464279567499999
6.612705157,0.457365036010742,-0.0845853686332703,0.136061131954193,0.484613343172255
6.617705157,0.426761627197266,-0.0905631184577942,0.132447764277458,0.455927159900521
6.622705157,0.356350898742676,-0.084696888923645,0.13753242790699,0.391247613096934
6.627705157,0.268511772155762,-0.0844486355781555,0.115944065153599,0.304422683257312
6.632705157,0.173935890197754,-0.0673427581787109,0.110153064131737,0.216615877801264
6.637705157,0.0750646591186523,-0.0533356070518494,0.0911927297711372,0.129597469077526
6.642705157,-0.0398645401000977,-0.0405519008636475,0.0739736035466194,0.0933045135174061
6.647705157,-0.147397041320801,-0.0299261808395386,0.0864197686314583,0.173464234065935
6.652705157,-0.23826789855957,-0.00655925273895264,0.0891735032200813,0.254492689398004
6.657705157,-0.31368350982666,-0.0137679576873779,0.0620860606431961,0.320064962034654
6.662705157,-0.352255821228027,-0.00523334741592407,0.0806169584393501,0.361400948396957
6.667705157,-0.394235610961914,-0.00716948509216309,0.0770630091428757,0.40176090631762
6.672705157,-0.397461891174316,-0.00427639484405518,0.0723545476794243,0.404016612354765
6.677705157,-0.380542755126953,-0.0131651163101196,0.0875577256083489,0.390707645280686
6.682705157,-0.336670875549316,-0.0222258567810059,0.0991863906383514,0.35168054714564
6.687705157,-0.291355133056641,-0.0395970940589905,0.0916845202445984,0.30799641989616
6.692705157,-0.229009628295898,-0.0448095798492432,0.084821954369545,0.248290298323475
6.697705157,-0.161374092102051,-0.0483348965644836,0.0881628841161728,0.190132990202495
6.702705157,-0.10120964050293,-0.0607441067695618,0.0991893857717514,0.154180971873125
6.707705157,-0.0231447219848633,-0.0703442692756653,0.0983039438724518,0.123075829294635
6.712705157,0.0321187973022461,-0.0771728754043579,0.0967100858688355,0.127828441854999
6.717705157,0.0691947937011719,-0.0885317325592041,0.110267221927643,0.157431405306953
