Time (s),Linear Acceleration x (m/s^2),Linear Acceleration y (m/s^2),Linear Acceleration z (m/s^2),Absolute acceleration (m/s^2)
0.012425177,0.0501852035522461,0.0105749368667603,-0.0456607341766357,0.068667944419982
0.017425177,0.101816177368164,0.0272332429885864,-0.0756219029426575,0.129718370719839
0.022425177,0.143054008483887,0.0368086695671082,-0.12566813826561,0.193937640683166
0.027425177,0.190234184265137,0.04033362865448,-0.172012776136398,0.259623268636712
0.032425177,0.217043876647949,0.0409420728683472,-0.227183878421783,0.316854560225809
0.037425177,0.219552993774414,0.0443857908248901,-0.259885519742966,0.343094883194912
0.042425177,0.209392547607422,0.037036657333374,-0.264264941215515,0.339194504872346
0.047425177,0.179061889648438,0.0264918804168701,-0.26491916179657,0.320853770960368
0.052425177,0.137515068054199,0.00625962018966675,-0.23911726474762,0.275910570814627
0.057425177,0.0857515335083008,-0.0191199779510498,-0.206807374954224,0.224695770746427
0.062425177,0.0247001647949219,-0.0494651198387146,-0.180276662111282,0.188564501228466
0.067425177,-0.0403985977172852,-0.0796388387680054,-0.140757381916046,0.166694426726568
0.072425177,-0.0983505249023438,-0.124472141265869,-0.12583801150322,0.202487888129047
0.077425177,-0.120125770568848,-0.155219376087189,-0.101868450641632,0.221134431294139
0.082425177,-0.132603645324707,-0.179007232189178,-0.0666817426681519,0.232537675946701
0.087425177,-0.135299682617188,-0.202063024044037,-0.0316827744245529,0.245233089115987
0.092425177,-0.124910354614258,-0.211290299892426,0.0115668773651123,0.245723381407774
0.097425177,-0.114243507385254,-0.233363449573517,0.0339675396680832,0.262037921545029
0.102425177,-0.040003776550293,-0.239405810832977,0.0667572766542435,0.251737916065841
0.107425177,0.0422286987304688,-0.229888558387756,0.0869346261024475,0.249378510480839
0.112425177,0.114789009094238,-0.205971240997314,0.102536976337433,0.257127400802081
0.117425177,0.191283226013184,-0.210186421871185,0.113852262496948,0.306153461794402
0.122425177,0.251193046569824,-0.207222282886505,0.116599529981613,0.345882164272253
0.127425177,0.311968803405762,-0.202232778072357,0.143768131732941,0.398612476632714
0.132425177,0.338627815246582,-0.206199109554291,0.145703941583633,0.42239378384709
0.137425177,0.343846321105957,-0.197318971157074,0.161174058914185,0.427951102561333
0.142425177,0.327715873718262,-0.181684553623199,0.157899647951126,0.406619317956334
0.147425177,0.301834106445313,-0.165272533893585,0.160754859447479,0.37981701266429
0.152425177,0.232951164245605,-0.158545255661011,0.155149221420288,0.321673940385789
0.157425177,0.160486221313477,-0.140695571899414,0.136903554201126,0.253561933926372
0.162425177,0.0768203735351563,-0.11793839931488,0.123361200094223,0.187159882217648
0.167425177,-0.0216646194458008,-0.100119173526764,0.129253089427948,0.164922908566647
0.172425177,-0.115713119506836,-0.0796151757240295,0.125475823879242,0.188340873444258
0.177425177,-0.199491500854492,-0.0544587373733521,0.124078959226608,0.241160115094175
0.182425177,-0.288288116455078,-0.037053644657135,0.133982986211777,0.320053825575979
0.187425177,-0.335626602172852,-0.00984978675842285,0.116742372512817,0.355487012315783
0.192425177,-0.390517234802246,-0.00250548124313355,0.145751148462296,0.416837360839849
0.197425177,-0.40516471862793,0.00676083564758301,0.151984959840775,0.43278584327275
0.202425177,-0.403240203857422,0.0187478065490723,0.158475250005722,0.433668706643392
0.207425177,-0.389139175415039,0.0122994184494019,0.18461287021637,0.430885698749003
0.212425177,-0.35370922088623,0.0192344188690186,0.18875190615654,0.401381935177582
0.217425177,-0.304859161376953,-0.000872135162353516,0.211450934410095,0.371013970839513
0.222425177,-0.242838859558105,-0.00165599584579468,0.226965457201004,0.33239550658242
0.227425177,-0.166233062744141,-0.0109491944313049,0.237075418233871,0.289755189666651
0.232425177,-0.075352668762207,-0.0108932852745056,0.238850206136704,0.250691262961445
0.237425177,0.0237293243408203,-0.0132555961608887,0.240344852209091,0.241876910114757
0.242425177,0.10612964630127,-0.0131652355194092,0.236461341381073,0.259520309837304
0.247425177,0.179420471191406,-0.0234406590461731,0.245438158512115,0.30492795810303
0.252425177,0.230853080749512,-0.0189576148986816,0.234940707683563,0.329923736916641
0.257425177,0.236641883850098,-0.0158287286758423,0.215324282646179,0.320334944301599
0.262425177,0.219097137451172,-0.00710374116897583,0.205949783325195,0.300781202919312
0.267425177,0.193765640258789,-0.00170373916625977,0.184806644916534,0.26777139891585
0.272425177,0.187165260314941,-0.0115787982940674,0.181998759508133,0.261320591804767
0.277425177,0.166897773742676,-0.00390332937240601,0.16442734003067,0.23432126026038
0.282425177,0.132166862487793,-0.000794947147369385,0.128154695034027,0.184098716291284
0.287425177,0.091975212097168,-0.0037158727645874,0.0922350585460663,0.130309452365198
0.292425177,0.0605440139770508,0.00318586826324463,0.0661593675613403,0.0897373350460142
0.297425177,0.0261392593383789,-0.000815093517303467,0.0530264675617218,0.0591247115703351
0.302425177,-0.0129680633544922,-0.00358313322067261,0.0478441417217255,0.049699812956708
0.307425177,-0.0487051010131836,-0.00913786888122559,0.0314037799835205,0.0586675797152759
0.312425177,-0.0600643157958984,-0.00999343395233154,-0.000234752893447876,0.0608904414757358
0.317425177,-0.0542640686035156,-0.0162699222564697,-0.0268062949180603,0.0626727768562447
0.322425177,-0.0458040237426758,-0.00385516881942749,-0.055063009262085,0.0717273023795148
0.327425177,-0.0433111190795898,-0.0226891040802002,-0.0780573189258575,0.0921064249538631
0.332425177,-0.0410995483398438,-0.0112413763999939,-0.0928392708301544,0.102150240456791
0.337425177,-0.0262298583984375,-0.00837475061416626,-0.0726582407951355,0.0777004625140382
0.342425177,-0.0128774642944336,-0.00548416376113892,-0.0587989985942841,0.0604419339077103
0.347425177,-0.0187149047851563,-0.0116156935691834,-0.0578689873218536,0.0619192352332253
0.352425177,-0.0292377471923828,-0.0170468091964722,-0.0414124131202698,0.05348296481227
0.357425177,-0.020695686340332,-0.0241628885269165,-0.0476428270339966,0.057288703797982
0.362425177,-0.0160417556762695,-0.0369787216186523,-0.0455483496189117,0.0608228240937029
0.367425177,0.0103549957275391,-0.0374816656112671,-0.0478564202785492,0.0616631020577892
0.372425177,0.032440185546875,-0.043002724647522,-0.043719083070755,0.0693754869530575
0.377425177,0.0509319305419922,-0.0451722741127014,-0.0644055008888245,0.0937158708116599
0.382425177,0.0627975463867188,-0.0584800839424133,-0.0587412714958191,0.103990331411383
0.387425177,0.0923652648925781,-0.0526696443557739,-0.0671280920505524,0.125744241767117
0.392425177,0.115884780883789,-0.0666927099227905,-0.0858264267444611,0.158881639987293
0.397425177,0.0994043350219727,-0.0591199994087219,-0.0788286924362183,0.139965563273442
0.402425177,0.0869121551513672,-0.0545188784599304,-0.0744651556015015,0.126771803727563
0.407425177,0.0645408630371094,-0.0554764866828918,-0.0777101516723633,0.115247695201222
0.412425177,0.0358781814575195,-0.0645528435707092,-0.0804190635681152,0.109185801746087
0.417425177,0.00779056549072266,-0.0533382892608643,-0.056743711233139,0.0782656679294998
0.422425177,-0.0136117935180664,-0.0467851161956787,-0.0437397062778473,0.065477400112512
0.427425177,-0.039423942565918,-0.037656843662262,-0.0254939794540405,0.0601849492020046
0.432425177,-0.0755109786987305,-0.0348060727119446,0.00381752848625183,0.083234272540899
0.437425177,-0.0921602249145508,-0.0144111514091492,0.0325944125652313,0.0988108499695783
0.442425177,-0.106611251831055,-0.032309353351593,0.0615739524364471,0.127283954014748
0.447425177,-0.0895528793334961,-0.0196078419685364,0.0371668934822083,0.0989220078379964
0.452425177,-0.0479907989501953,0.0133691430091858,-0.00235950946807861,0.0498740218310904
0.457425177,-0.0640792846679688,0.0229394435882568,0.0146709382534027,0.0696247745054341
0.462425177,-0.0716695785522461,0.0165466666221619,0.0444270670413971,0.085930698542851
0.467425177,-0.0707216262817383,0.00861501693725586,0.0690129399299622,0.0991894793742745
0.472425177,-0.0479602813720703,0.0336029529571533,0.0707782506942749,0.0918635281712522
0.477425177,0.00249290466308594,0.0410398840904236,0.0538184940814972,0.0677267817411605
0.482425177,0.0132570266723633,0.0429538488388062,0.0292172133922577,0.0536136871019657
0.487425177,0.0391359329223633,0.0381342768669128,0.021567702293396,0.0587452985359904
0.492425177,0.0641031265258789,0.0410993695259094,0.0381580293178558,0.0851727902985598
0.497425177,0.0841865539550781,0.0521990656852722,0.0529991984367371,0.112343372569027
0.502425177,0.0957822799682617,0.0464425683021545,0.103707611560822,0.148615026165153
0.507425177,0.102964401245117,0.044601321220398,0.134264528751373,0.174979740139249
0.512425177,0.125790596008301,0.0344123244285584,0.158690869808197,0.205402712438716
0.517425177,0.127134323120117,0.0304426550865173,0.160671412944794,0.207135690554775
0.522425177,0.120681762695313,0.0237647891044617,0.168150007724762,0.208334534214241
0.527425177,0.115677833557129,0.019186794757843,0.185544550418854,0.219490943912693
0.532425177,0.0860815048217773,0.013472318649292,0.174145519733429,0.194725937885521
0.537425177,0.0578203201293945,0.0136973261833191,0.18763279914856,0.19681685263402
0.542425177,0.040644645690918,-0.0052945613861084,0.18616795539856,0.190626669752403
0.547425177,0.0423030853271484,0.00243014097213745,0.156291782855988,0.161933869223346
0.552425177,0.150951385498047,0.0312076210975647,0.115676403045654,0.192720695878595
0.557425177,0.192975044250488,0.0217065811157227,0.0741428136825562,0.207864619856236
0.562425177,0.154587745666504,0.0289269089698792,0.0621053576469421,0.169089362827051
0.567425177,0.0930385589599609,0.0141992568969727,0.041385293006897,0.102813106299922
0.572425177,0.0136442184448242,0.0125525593757629,0.0212809443473816,0.0282242809681396
0.577425177,-0.0439748764038086,0.00703930854797363,0.0183857679367065,0.0481806816284934
0.582425177,-0.091740608215332,0.00544333457946777,0.0280900001525879,0.0960989968503078
0.587425177,-0.124621391296387,0.0146702527999878,0.0418573021888733,0.132279027938647
0.592425177,-0.157086372375488,-0.0151574015617371,0.0450385212898254,0.164116859609756
0.597425177,-0.18061637878418,-0.00478774309158325,0.053009569644928,0.188295547591975
0.602425177,-0.213085174560547,-0.00655502080917358,0.0272655785083771,0.214922478318821
0.607425177,-0.238312721252441,-0.00395959615707398,-0.00704994797706604,0.238449854852022
0.612425177,-0.246612548828125,-0.0041843056678772,-0.0381671786308289,0.249583635637564
0.617425177,-0.25083065032959,-0.00641322135925293,-0.0651210248470306,0.259225562840734
0.622425177,-0.230164527893066,0.0153518915176392,-0.089110255241394,0.247289360997585
0.627425177,-0.205516815185547,0.017677903175354,-0.0995235443115234,0.229029704311505
0.632425177,-0.172351837158203,0.020348846912384,-0.10476142168045,0.202717011656596
0.637425177,-0.115320205688477,0.0416775941848755,-0.0925627946853638,0.153634770338737
0.642425177,-0.0662307739257813,0.0544683933258057,-0.0931448638439179,0.126606820301296
0.647425177,-0.0222549438476563,0.0553613305091858,-0.0854001641273499,0.104179400432081
0.652425177,0.0359811782836914,0.0558397769927979,-0.0916926860809326,0.113226651306239
0.657425177,0.0642786026000977,0.0618579387664795,-0.0655950009822846,0.110728711247466
0.662425177,0.111955642700195,0.0505862236022949,-0.0390865206718445,0.12892163530217
0.667425177,0.123064041137695,0.0447641611099243,0.00387957692146301,0.131010073880237
0.672425177,0.107278823852539,0.0409653782844543,0.0434322059154511,0.12277322499574
0.677425177,0.059575080871582,0.0535545945167542,0.0709289908409119,0.1069962924424
0.682425177,-0.00630760192871094,0.0548723340034485,0.0831098854541779,0.0997898388679111
0.687425177,-0.0690059661865234,0.0475952625274658,0.096534788608551,0.127851858790131
0.692425177,-0.149931907653809,0.0441489815711975,0.0855000913143158,0.178154357570171
0.697425177,-0.199211120605469,0.0232403874397278,0.0804194509983063,0.216084414708938
0.702425177,-0.220528602600098,-0.000257313251495361,0.0877625942230225,0.237350381755783
0.707425177,-0.222503662109375,0.00167030096054077,0.0790287256240845,0.236127527050847
0.712425177,-0.20139217376709,-0.000602841377258301,0.106456577777863,0.227798538240556
0.717425177,-0.184325218200684,-0.0317658185958862,0.0961738526821137,0.210319431426384
0.722425177,-0.130732536315918,-0.0581273436546326,0.0841169357299805,0.16596819878681
0.727425177,-0.0768423080444336,-0.0835967063903809,0.0717161297798157,0.134299489557893
0.732425177,-0.0370063781738281,-0.116632342338562,0.0548722743988037,0.134102728542791
0.737425177,0.0192346572875977,-0.139125406742096,0.0343279838562012,0.144583060272483
0.742425177,0.0799722671508789,-0.138197600841522,0.0268260538578033,0.161906693985104
0.747425177,0.136580467224121,-0.159999251365662,0.0485225319862366,0.215889834348648
0.752425177,0.188407897949219,-0.152040004730225,0.088275671005249,0.257694185303893
0.757425177,0.223259925842285,-0.151106894016266,0.12801530957222,0.298439621014397
0.762425177,0.251491546630859,-0.120435416698456,0.135855346918106,0.310176341632226
0.767425177,0.355328559875488,-0.00789999961853027,-0.00465831160545349,0.35544689522371
0.772425177,0.512204170227051,0.0381214618682861,-0.182231545448303,0.544990544880766
0.777425177,0.52978515625,0.0500313639640808,-0.195083498954773,0.566774223767613
0.782425177,0.505077362060547,0.0600816011428833,-0.214828222990036,0.552145004373842
0.787425177,0.457984924316406,0.0653446912765503,-0.221908211708069,0.513091974213791
0.792425177,0.37657356262207,0.074265718460083,-0.231442630290985,0.448206131283677
0.797425177,0.288528442382813,0.0712652206420898,-0.216301053762436,0.367577936764107
0.802425177,0.172035217285156,0.0723305940628052,-0.20771723985672,0.27923875547195
0.807425177,0.0691003799438477,0.0888733863830566,-0.199982687830925,0.229491648535753
0.812425177,-0.0490665435791016,0.106712520122528,-0.212126329541206,0.242471992886447
0.817425177,-0.147289276123047,0.108722507953644,-0.233932048082352,0.297050362256276
0.822425177,-0.257968902587891,0.125434994697571,-0.246504902839661,0.378214964961952
0.827425177,-0.326359748840332,0.152230978012085,-0.279264032840729,0.455711922565241
0.832425177,-0.405549049377441,0.139061450958252,-0.299487918615341,0.522973356864487
0.837425177,-0.433197021484375,0.144645035266876,-0.283287316560745,0.537432367256084
0.842425177,-0.443310737609863,0.145302772521973,-0.266938984394074,0.537488350731542
0.847425177,-0.430198669433594,0.141126573085785,-0.248379677534103,0.51641075610924
0.852425177,-0.41490364074707,0.136164367198944,-0.244268774986267,0.500352875911745
0.857425177,-0.342319488525391,0.118025541305542,-0.249510571360588,0.439736495921635
0.862425177,-0.264899253845215,0.104556560516357,-0.220678761601448,0.360281563303912
0.867425177,-0.180519104003906,0.0972124338150024,-0.220895513892174,0.301383861970572
0.872425177,-0.100565910339355,0.089196503162384,-0.2320386916399,0.268163146082263
0.877425177,0.00226783752441406,0.0764941573143005,-0.206092938780785,0.219842667845808
0.882425177,0.0987825393676758,0.0661954283714294,-0.184141963720322,0.219198740014581
0.887425177,0.195624351501465,0.0391772389411926,-0.161397710442543,0.256618323366666
0.892425177,0.252195358276367,0.0130497813224792,-0.148010015487671,0.292711052427766
0.897425177,0.311681747436523,-0.00578933954238892,-0.143512904644012,0.343183598000813
0.902425177,0.346145629882813,-0.0340185165405273,-0.122540265321732,0.368768454697128
0.907425177,0.365655899047852,-0.0533442497253418,-0.112079471349716,0.386149781024519
0.912425177,0.37204647064209,-0.0737524032592773,-0.113229095935822,0.39582675689018
0.917425177,0.336879730224609,-0.0788351893424988,-0.112315744161606,0.363755090825474
0.922425177,0.264895439147949,-0.0525597333908081,-0.11041533946991,0.291759603862072
0.927425177,0.202054977416992,-0.0436134934425354,-0.103291779756546,0.231079082728226
0.932425177,0.174860954284668,-0.0109097957611084,-0.109352022409439,0.206526612769222
0.937425177,0.122113227844238,0.0205835700035095,-0.113813519477844,0.168192868411719
0.942425177,0.0756216049194336,0.04336017370224,-0.13628688454628,0.161780241974755
0.947425177,-0.0142011642456055,0.0588236451148987,-0.13990680873394,0.152432966974502
0.952425177,-0.0801944732666016,0.055798351764679,-0.132694736123085,0.164780164452332
0.957425177,-0.139238357543945,0.0617461800575256,-0.138138592243195,0.205626315509867
0.962425177,-0.202774047851563,0.0711026191711426,-0.149248704314232,0.261625825702627
0.967425177,-0.244501113891602,0.069191575050354,-0.130686387419701,0.285739742788774
0.972425177,-0.270628929138184,0.0830422639846802,-0.137441411614418,0.314684248923814
0.977425177,-0.288480758666992,0.0747522115707398,-0.155360132455826,0.336074116844026
0.982425177,-0.277979850769043,0.0867940187454224,-0.146108984947205,0.325812575886602
0.987425177,-0.250415802001953,0.0745700001716614,-0.155056521296501,0.30382772028644
0.992425177,-0.209327697753906,0.049509584903717,-0.149706229567528,0.262071057569535
0.997425177,-0.149648666381836,0.0487635731697083,-0.134182140231133,0.20682711663403
1.002425177,-0.0997085571289063,0.0317342281341553,-0.108956426382065,0.151064093847444
1.007425177,-0.0597410202026367,0.024239182472229,-0.0942922681570053,0.114225913417081
1.012425177,0.0175132751464844,0.0195741057395935,-0.0899665206670761,0.0937221172552172
1.017425177,0.0742864608764648,0.00218808650970459,-0.0871989130973816,0.114572756087515
1.022425177,0.128824234008789,-0.000551283359527588,-0.0742220282554627,0.148677155809655
1.027425177,0.184887886047363,0.0020490288734436,-0.0547089576721191,0.19282323245905
1.032425177,0.219646453857422,-0.0197651982307434,-0.0439815819263458,0.224876871425198
1.037425177,0.245171546936035,-0.0336259007453918,-0.0434372425079346,0.251250040128635
1.042425177,0.260859489440918,-0.0155638456344605,-0.022897481918335,0.26232461035997
1.047425177,0.261913299560547,-0.0313777923583984,0.0172894597053528,0.264352166166428
1.052425177,0.262791633605957,-0.0575507879257202,0.0775642693042755,0.279978127282945
1.057425177,0.218357086181641,-0.0552223920822144,0.113809913396835,0.252352979099541
1.062425177,0.150205612182617,-0.050534188747406,0.143066734075546,0.213502975535603
1.067425177,0.0632801055908203,-0.0466689467430115,0.182571083307266,0.198782702501189
1.072425177,0.0305490493774414,-0.0585610270500183,0.232390731573105,0.241594889076945
1.077425177,-0.00295448303222656,-0.0608255863189697,0.25468236207962,0.261861769786063
1.082425177,-0.0977907180786133,-0.0852875709533691,0.326620846986771,0.351451521532931
1.087425177,-0.173928260803223,-0.112082123756409,0.49031338095665,0.532184793015473
1.092425177,-0.200475692749023,-0.126958429813385,0.677636742591858,0.717983635742755
1.097425177,-0.259356498718262,-0.1481813788414,0.882580399513245,0.931757305347102
1.102425177,-0.271633148193359,-0.196183800697327,1.0647976398468,1.11627356175662
1.107425177,-0.283648490905762,-0.215083301067352,1.22131514549255,1.2721352040568
1.112425177,-0.23599910736084,-0.242783963680267,1.29303133487701,1.33662622474245
1.117425177,-0.0983552932739258,-0.286542177200317,1.30244708061218,1.33721672918974
1.122425177,0.0808334350585938,-0.310496151447296,1.20806729793549,1.2499473991445
1.127425177,-0.0222644805908203,-0.250902056694031,1.14574575424194,1.17310736188667
1.132425177,-0.0984411239624023,-0.214688062667847,1.03256320953369,1.0592300981475
1.137425177,-0.0848665237426758,-0.220873713493347,0.854564189910889,0.886717248531098
1.142425177,-0.0579376220703125,-0.184754967689514,0.704157412052155,0.730293658116448
1.147425177,-0.0310583114624023,-0.157722473144531,0.621477127075195,0.641930538861769
1.152425177,0.0169515609741211,-0.132432699203491,0.527197599411011,0.54384104668783
1.157425177,0.0579280853271484,-0.160080671310425,0.443480670452118,0.475033250900951
1.162425177,0.0853939056396484,-0.152400553226471,0.370329409837723,0.409465407006359
1.167425177,0.104435920715332,-0.158863425254822,0.33294478058815,0.383401455840017
1.172425177,0.0935916900634766,-0.158244431018829,0.328070670366287,0.376073223125492
1.177425177,0.0752668380737305,-0.137287437915802,0.316268265247345,0.352900202784962
1.182425177,0.0970993041992188,-0.143865942955017,0.283114820718765,0.332083854062385
1.187425177,0.0860567092895508,-0.132522523403168,0.252948105335236,0.298246073596242
1.192425177,0.0639562606811523,-0.121640026569366,0.200600802898407,0.243161225255173
1.197425177,0.0325441360473633,-0.116882741451263,0.134687155485153,0.181276931496851
1.202425177,-0.0102148056030273,-0.103066921234131,0.0973553657531738,0.142144995505028
1.207425177,-0.0399532318115234,-0.0954210162162781,0.0806988477706909,0.131201124611985
1.212425177,-0.077366828918457,-0.0941768288612366,0.0655710399150848,0.13839964807326
1.217425177,-0.106057167053223,-0.0797126889228821,0.0541536211967468,0.143299860946869
1.222425177,-0.121950149536133,-0.0712284445762634,0.0116324424743652,0.141706189019952
1.227425177,-0.120050430297852,-0.0712746381759644,-0.0235643684864044,0.141589050861912
1.232425177,-0.117694854736328,-0.0695073008537293,-0.064197301864624,0.151012043460361
1.237425177,-0.12712574005127,-0.0622250437736511,-0.075407862663269,0.160372240763975
1.242425177,-0.130838394165039,-0.0614386796951294,-0.103408694267273,0.177726629407158
1.247425177,-0.121626853942871,-0.0570036172866821,-0.14190311729908,0.195394469427882
1.252425177,-0.099761962890625,-0.0541548132896423,-0.150211483240128,0.188278205694195
1.257425177,-0.0775623321533203,-0.0446996092796326,-0.157687455415726,0.181326512221187
1.262425177,-0.0334548950195313,-0.0596311092376709,-0.170228406786919,0.183447021417344
1.267425177,-0.0199060440063477,-0.058069109916687,-0.20646870136261,0.215401013825055
1.272425177,0.109153747558594,-0.136034667491913,-1.6013925075531,1.61086248159578
1.277425177,0.421700477600098,-0.315540075302124,-5.8886866569519,5.91219311048728
1.282425177,0.0552530288696289,0.0888375639915466,1.1529495716095,1.15768636713479
1.287425177,0.117656707763672,0.035226583480835,1.11765766143799,1.12438545936727
1.292425177,0.23858642578125,-0.184008955955505,-1.9307713508606,1.95413939823723
1.297425177,0.0986948013305664,0.000491738319396973,-0.658405780792236,0.66576202790253
1.302425177,-0.0462894439697266,0.00522464513778687,-0.504677832126617,0.506823168156177
1.307425177,-0.139656066894531,-0.025253176689148,-0.184777200222015,0.232989599929331
1.312425177,-0.0511598587036133,-0.0368921756744385,-0.427119135856628,0.431751224646185
1.317425177,0.0390739440917969,-0.0487666726112366,-0.275403797626495,0.282404343471477
1.322425177,0.0422897338867188,-0.0540056824684143,-0.242670267820358,0.252178298461809
1.327425177,-0.0244693756103516,-0.0419416427612305,-0.503359913825989,0.505696603298043
1.332425177,-0.00300788879394531,-0.0430857539176941,-0.212485045194626,0.21683017321631
1.337425177,-0.0243253707885742,-0.0606910586357117,-0.30035987496376,0.307394181386979
1.342425177,-0.0200443267822266,-0.0486844778060913,-0.17240384221077,0.180263801758535
1.347425177,-0.0240392684936523,-0.0425204634666443,-0.148366183042526,0.156199873603459
1.352425177,-0.0277366638183594,-0.0529036521911621,-0.140186801552773,0.152382604862014
1.357425177,-0.0284643173217773,-0.040347695350647,-0.144301265478134,0.152515602806055
1.362425177,-0.0415115356445313,-0.0596170425415039,-0.107816264033318,0.130006715761397
1.367425177,-0.0353527069091797,-0.0659741759300232,-0.0431841611862183,0.0864134107231585
1.372425177,-0.020756721496582,-0.0675435066223145,-0.0162676572799683,0.0725093335199256
1.377425177,-0.0161638259887695,-0.0825054049491882,0.010234922170639,0.0846945378891921
1.382425177,-0.00302791595458984,-0.0652377009391785,0.0145471692085266,0.0669084899757815
1.387425177,-0.0106840133666992,-0.0757264494895935,-0.0058986246585846,0.0767035661933826
1.392425177,-0.00964450836181641,-0.06960529088974,-0.00227829813957214,0.0703072094724236
1.397425177,-0.0147171020507813,-0.0722026228904724,-0.0007057785987854,0.0736906369118044
1.402425177,-0.00087738037109375,-0.071770191192627,-0.00559887290000916,0.0719935935892373
1.407425177,0.0064544677734375,-0.0653643608093262,0.00846084952354431,0.0662249635176206
1.412425177,0.0117130279541016,-0.0738592147827148,0.0151838660240173,0.0763081150311556
1.417425177,-0.00778865814208984,-0.0747554302215576,0.00109925866127014,0.0751681176621371
1.422425177,-0.0149297714233398,-0.067001223564148,-0.00463683903217316,0.0688008888754818
1.427425177,-0.0140256881713867,-0.0650910139083862,-0.0238371640443802,0.0707231956997236
1.432425177,-0.00917720794677734,-0.0735357999801636,-0.0439937263727188,0.0861811057284523
1.437425177,-0.00953197479248047,-0.0610999464988709,-0.0569801777601242,0.0840880649271032
1.442425177,-0.00412940979003906,-0.0627744197845459,-0.0560078471899033,0.0842292036727643
1.447425177,-0.00399875640869141,-0.08362877368927,-0.0525042861700058,0.0988254112453323
1.452425177,-0.00408744812011719,-0.0869995355606079,-0.0161876380443573,0.0885870534861119
1.457425177,-0.00843715667724609,-0.0734919309616089,-0.00840066373348236,0.0744501220981224
1.462425177,-0.00470161437988281,-0.0765974521636963,-0.00558415055274963,0.0769445098310636
1.467425177,0.00456047058105469,-0.0746063590049744,-0.00508204102516174,0.074918180950162
1.472425177,-0.00354671478271484,-0.0873922109603882,0.0278258770704269,0.0917837521407435
1.477425177,0.00168323516845703,-0.0906247496604919,0.0453445762395859,0.101349934020732
1.482425177,0.00455951690673828,-0.0852317810058594,0.0762787461280823,0.114471362352014
1.487425177,0.00144290924072266,-0.0942692160606384,0.091478630900383,0.131366308447687
1.492425177,-0.00444412231445313,-0.0889850854873657,0.118540778756142,0.148290296009052
1.497425177,-0.00754451751708984,-0.0975887179374695,0.146738022565842,0.17638742834958
1.502425177,-0.00726032257080078,-0.0937751531600952,0.180057913064957,0.203143652845318
1.507425177,-0.0194435119628906,-0.0902619957923889,0.186745762825012,0.208324885635327
1.512425177,-0.0351810455322266,-0.10454648733139,0.18350550532341,0.214107319963782
1.517425177,-0.0371513366699219,-0.105259716510773,0.192717760801315,0.222710496080816
1.522425177,-0.0486879348754883,-0.102669715881348,0.175556510686874,0.209121194540743
1.527425177,-0.0530767440795898,-0.103272080421448,0.172489166259766,0.207929737732854
1.532425177,-0.0574932098388672,-0.0833222270011902,0.142749130725861,0.175001077176693
1.537425177,-0.0610151290893555,-0.0871481895446777,0.135850667953491,0.172548708781363
1.542425177,-0.0567445755004883,-0.0861669182777405,0.108468621969223,0.149700122264865
1.547425177,-0.049077033996582,-0.0827242732048035,0.097617119550705,0.137043652434329
1.552425177,-0.0452051162719727,-0.0761134028434753,0.0807109475135803,0.119795699748011
1.557425177,-0.0423965454101563,-0.0736238956451416,0.0795830190181732,0.116410489169701
1.562425177,-0.0171289443969727,-0.0868157744407654,0.0661251544952393,0.110466807163617
1.567425177,0.00785064697265625,-0.0812067985534668,0.0545869618654251,0.0981626873862467
1.572425177,0.0205440521240234,-0.0803073644638062,0.0403013676404953,0.0921712053652959
1.577425177,0.0471811294555664,-0.0795082449913025,0.0413341522216797,0.10127256360034
1.582425177,0.065460205078125,-0.0788094401359558,0.0346075743436813,0.108137183731436
1.587425177,0.0787906646728516,-0.0741456747055054,0.0149283111095428,0.109217234856536
1.592425177,0.0755910873413086,-0.080685019493103,0.0168918818235397,0.11184552082039
1.597425177,0.0798654556274414,-0.0450617074966431,0.0303485989570618,0.0965923700079277
1.602425177,0.0625801086425781,-0.0582783222198486,0.0479520559310913,0.0980409736105058
1.607425177,0.0433025360107422,-0.0471810102462769,0.0648785829544067,0.0911613288571022
1.612425177,0.0339393615722656,-0.0559135675430298,0.0658887922763825,0.0928414791295475
1.617425177,0.00941753387451172,-0.0473247766494751,0.068690836429596,0.0839449548132452
1.622425177,-0.0042266845703125,-0.0537754893302918,0.0771409273147583,0.0941296487943627
1.627425177,-0.0262899398803711,-0.0275036096572876,0.0758596658706665,0.0848663560493977
1.632425177,-0.0559597015380859,-0.0180593729019165,0.0731118321418762,0.0938241394577324
1.637425177,-0.0860261917114258,-0.00144141912460327,0.0703436732292175,0.111134223859452
1.642425177,-0.108977317810059,-0.0101191997528076,0.0713543295860291,0.130651805771613
1.647425177,-0.0963916778564453,0.00417947769165039,0.0779478549957275,0.124035042194497
1.652425177,-0.0858068466186523,-0.00335240364074707,0.0584447085857391,0.10387414258842
1.657425177,-0.0892696380615234,-0.00258153676986694,0.0589337944984436,0.106999648343882
1.662425177,-0.0618934631347656,-0.0057479739189148,0.0466063916683197,0.0776916709006052
1.667425177,-0.0529413223266602,-0.0129047036170959,0.0420421063899994,0.0688248043575021
1.672425177,-0.0303955078125,-0.009898841381073,0.0225386023521423,0.0391134574265097
1.677425177,-0.0202789306640625,-0.0210390686988831,0.0274454653263092,0.0400890384964745
1.682425177,0.00545787811279297,-0.0211799144744873,-0.00657764077186585,0.0228394958080167
1.687425177,0.0220212936401367,-0.0202785730361938,-0.0115269124507904,0.0320784601971099
1.692425177,0.0405864715576172,-0.0199133157730103,-0.020562469959259,0.0496650479653279
1.697425177,0.0594339370727539,-0.0381462574005127,-0.0280537605285645,0.0759904159050882
1.702425177,0.0566978454589844,-0.0223062038421631,-0.0352202206850052,0.0703752538513324
1.707425177,0.0679073333740234,-0.026374340057373,-0.0422147661447525,0.0841967827181589
1.712425177,0.0624017715454102,-0.0309009552001953,-0.0552291572093964,0.0888769369991465
1.717425177,0.0562562942504883,-0.0241901874542236,-0.0638410001993179,0.0884624729380618
1.722425177,0.0524225234985352,-0.015887975692749,-0.069965586066246,0.0888579314139213
1.727425177,0.042755126953125,-0.00811076164245606,-0.0539339929819107,0.0693012332803058
1.732425177,0.0179643630981445,-0.0135203003883362,-0.0583574324846268,0.06253884225272
1.737425177,0.0227470397949219,-0.0163498520851135,-0.0767684578895569,0.0817198972672967
1.742425177,-0.00250053405761719,-0.0166427493095398,-0.0455083101987839,0.0485205118718077
1.747425177,-0.0197420120239258,-0.0135915875434875,-0.0444886833429337,0.0505343569890123
1.752425177,-0.0340471267700195,-0.00980114936828613,-0.0526861697435379,0.0634909588246872
1.757425177,-0.0510444641113281,-0.00579255819320679,-0.0511104166507721,0.0724663075991172
1.762425177,-0.0616559982299805,-0.018297016620636,-0.0334623157978058,0.0724980655845607
1.767425177,-0.0517234802246094,-0.00673335790634155,-0.0283414423465729,0.0593623944052509
1.772425177,-0.0706062316894531,-0.0223064422607422,-0.0355006754398346,0.082116473842957
1.777425177,-0.0553359985351563,-0.00471580028533936,-0.0188845098018646,0.0586594938323776
1.782425177,-0.0542888641357422,-0.00117158889770508,-0.0293166935443878,0.0617099822562756
1.787425177,-0.0380849838256836,-0.013626754283905,-0.0227817893028259,0.0464237476853696
1.792425177,-0.0347499847412109,-0.00240153074264526,-0.0270568132400513,0.0441066880657489
1.797425177,-0.0195446014404297,0.00105321407318115,-0.0316118597984314,0.037180779782905
1.802425177,0.00558185577392578,-0.00259721279144287,-0.0426489859819412,0.0430910505030077
1.807425177,0.014887809753418,-0.0068364143371582,-0.0390097349882126,0.0423100799348553
1.812425177,0.0202932357788086,-0.0250427722930908,-0.0426063984632492,0.0534252847676742
1.817425177,0.0390863418579102,-0.0159434676170349,-0.034649983048439,0.0546127970785783
1.822425177,0.0497989654541016,-0.0164700150489807,-0.0385519713163376,0.0650957206611016
1.827425177,0.0503644943237305,-0.00697821378707886,-0.0412426739931107,0.0654693509532916
1.832425177,0.0589065551757813,0.00244796276092529,-0.0443005114793778,0.0737462546960232
1.837425177,0.062037467956543,-0.00117099285125732,-0.0390045195817947,0.0732896391212523
1.842425177,0.0592794418334961,-0.00705426931381226,-0.039703756570816,0.0716952106174273
1.847425177,0.0559043884277344,-0.0108063817024231,-0.0336124449968338,0.0661201556988687
1.852425177,0.0481147766113281,-0.00822663307189941,-0.0411278456449509,0.0638295300582151
1.857425177,0.0308074951171875,0.00116777420043945,-0.0136915445327759,0.0337331267995087
1.862425177,0.00844383239746094,-0.000740945339202881,-0.0223590135574341,0.0239117710095597
1.867425177,0.00249385833740234,-0.00715512037277222,-0.0210378468036652,0.0223608156177358
1.872425177,-0.00869369506835938,0.00301522016525269,-0.00632354617118835,0.0111650849869454
1.877425177,-0.0319948196411133,0.00856286287307739,0.0103772282600403,0.0347084711678788
1.882425177,-0.0562906265258789,0.00220108032226563,0.0187744200229645,0.0593797796935938
1.887425177,-0.0547084808349609,0.0158941149711609,0.0124278664588928,0.0583103132447927
1.892425177,-0.0732831954956055,0.0171807408332825,0.0248247385025024,0.0792582629089559
1.897425177,-0.0656118392944336,0.0138917565345764,0.0310572981834412,0.0739083900898248
1.902425177,-0.065007209777832,0.0191351771354675,0.0427594780921936,0.0801278059965551
1.907425177,-0.0680713653564453,0.0154805183410645,0.0484447777271271,0.0849720761110934
1.912425177,-0.0551176071166992,0.0279971361160278,0.0652213394641876,0.0898644165756002
1.917425177,-0.0564041137695313,0.0242769718170166,0.0483619272708893,0.0781643871599159
1.922425177,-0.0377197265625,0.0259931683540344,0.0613251924514771,0.0765454231305938
1.927425177,-0.0275344848632813,0.0255500674247742,0.0602135360240936,0.0709691744535724
1.932425177,-0.0165576934814453,0.0149667859077454,0.0622785687446594,0.0661572522004735
1.937425177,-0.00335121154785156,0.0157182216644287,0.0362214148044586,0.0396268091267418
1.942425177,0.00872898101806641,0.0172357559204102,0.0725592970848084,0.0750874023069329
1.947425177,0.0190839767456055,0.0129421949386597,0.047886461019516,0.0531489579129328
1.952425177,0.0302009582519531,0.0133278369903564,0.0440657436847687,0.0550592306944935
1.957425177,0.0441427230834961,0.0113163590431213,0.0337935984134674,0.0567331232786435
1.962425177,0.0565128326416016,0.00587379932403564,0.0230999886989594,0.0613336062005876
1.967425177,0.0605306625366211,0.00414234399795532,0.0223118364810944,0.064644707193078
1.972425177,0.0403690338134766,0.0132582187652588,0.0290518701076508,0.0514728123635467
1.977425177,0.0513839721679688,0.0187683701515198,0.0264362990856171,0.0607572400891223
1.982425177,0.0582828521728516,0.00120145082473755,0.0310330092906952,0.0660407601949213
1.987425177,0.0434350967407227,0.00464797019958496,0.026127815246582,0.0509006285365092
1.992425177,0.0255937576293945,0.0173031091690063,0.0173872411251068,0.0354507287717664
1.997425177,0.0110692977905273,0.0164033174514771,0.0342873930931091,0.0395881737657939
2.002425177,0.00934219360351563,-0.000272810459136963,0.0171919763088226,0.0195682154596504
2.007425177,-0.0035247802734375,0.000693857669830322,0.0251003503799438,0.0253561255644064
2.012425177,-0.0174674987792969,0.0144767761230469,0.0230568945407867,0.0323467300725517
2.017425177,-0.0215616226196289,0.0237944722175598,0.0264186561107636,0.0415815568347591
2.022425177,-0.0282230377197266,0.0209343433380127,0.0384968519210815,0.0521228759467145
2.027425177,-0.0401582717895508,0.0164539217948914,0.0415615141391754,0.0600897478202123
2.032425177,-0.0369319915771484,0.0342701077461243,0.0353263020515442,0.0615334047767752
2.037425177,-0.032902717590332,0.0239084362983704,0.032746821641922,0.0522164387785133
2.042425177,-0.0346469879150391,0.0166351199150085,0.0279407203197479,0.0475165743520927
2.047425177,-0.0287685394287109,0.0210859179496765,0.0352291762828827,0.0501332191088126
2.052425177,-0.0195808410644531,0.020086407661438,0.0285696089267731,0.0400386770980461
2.057425177,-0.00829219818115234,0.0163488388061523,0.0406230688095093,0.0445676878521557
2.062425177,-0.0160903930664063,0.0258560180664063,0.0196081101894379,0.036220331369038
2.067425177,-0.00589847564697266,0.0213719010353088,0.00462052226066589,0.0226472822824787
2.072425177,0.00708198547363281,0.0273695588111877,0.0126727819442749,0.0309813923182118
2.077425177,0.0241374969482422,0.0184985995292664,0.00229838490486145,0.030497532959921
2.082425177,0.0190544128417969,0.0125401020050049,-0.00733023881912231,0.0239594909834689
2.087425177,0.0333738327026367,0.0131926536560059,-0.03436379134655,0.0496863057135478
2.092425177,0.0579967498779297,0.0134006142616272,-0.0198253095149994,0.0627394800453238
2.097425177,0.0486288070678711,0.00887244939804077,-0.0142769068479538,0.0514520291563916
2.102425177,0.0423126220703125,0.010606586933136,-0.0283052325248718,0.0520004217398506
2.107425177,0.0307493209838867,0.0185497403144836,-0.0265466272830963,0.0446580007032616
2.112425177,0.0213088989257813,0.0255178809165955,-0.023702085018158,0.0408291593608134
2.117425177,0.00996589660644531,0.025993287563324,-0.0173944383859634,0.0328258523161713
2.122425177,0.0250234603881836,0.0299613475799561,-0.0276397168636322,0.0478310554651231
2.127425177,-0.00540637969970703,0.0290824174880981,-0.0357223153114319,0.0463799499743025
2.132425177,-0.00745296478271484,0.0281763076782227,-0.0159647017717361,0.0332313511776264
2.137425177,-0.024409294128418,0.0244651436805725,-0.0144224315881729,0.0374481431859339
2.142425177,-0.0299968719482422,0.0328271389007568,-0.00451220571994782,0.0446966819299593
2.147425177,-0.0331573486328125,0.0263738632202148,-0.0146325826644897,0.0448230175796945
2.152425177,-0.0426454544067383,0.0437268614768982,-0.0269424617290497,0.0667575421971057
2.157425177,-0.0436305999755859,0.0470268726348877,-0.0359182357788086,0.0735205798774033
2.162425177,-0.0423583984375,0.0605811476707459,-0.0295082777738571,0.0795930136913651
2.167425177,-0.0486478805541992,0.0554131865501404,-0.0330560952425003,0.0808080624612269
2.172425177,-0.296547889709473,0.117370009422302,-0.944884657859802,0.997257933867547
2.177425177,0.0641355514526367,-0.0228381156921387,-0.571716904640198,0.575756170214328
2.182425177,0.0104837417602539,0.048995316028595,-0.320522278547287,0.324414828389798
2.187425177,-0.183015823364258,0.180646359920502,-0.972844541072846,1.00625762111373
2.192425177,0.102106094360352,0.0390201807022095,0.121022313833237,0.163078599004003
2.197425177,0.0814657211303711,0.0417962670326233,-0.0219553560018539,0.0941574708364763
2.202425177,0.0508050918579102,0.0179415941238403,-0.159007593989372,0.167888275661776
2.207425177,0.0638198852539063,0.0253077149391174,-0.156809598207474,0.171180338471598
2.212425177,0.123479843139648,0.0135901570320129,-0.0145536214113235,0.125075065165408
2.217425177,0.13849925994873,0.0239420533180237,0.0656244158744812,0.155118763798246
2.222425177,0.120892524719238,0.0296690464019775,0.0716863721609116,0.143646060861365
2.227425177,0.0936994552612305,0.0259265303611755,0.0153150409460068,0.0984191209674124
2.232425177,0.0604372024536133,0.0386812090873718,-0.0268022567033768,0.0765979917574457
2.237425177,0.0213289260864258,0.0605955123901367,-0.0991626903414726,0.118152352348915
2.242425177,0.0131778717041016,0.053922712802887,-0.0488692671060562,0.0739562068129204
2.247425177,-0.00244998931884766,0.0473056435585022,0.0201356112957001,0.0514710520817095
2.252425177,-0.0170536041259766,0.0530964136123657,0.126918092370033,0.138629927227238
2.257425177,-0.0240364074707031,0.0613563656806946,0.13376821577549,0.149118369242018
2.262425177,-0.0492868423461914,0.0564514994621277,0.119989037513733,0.141468490284773
2.267425177,-0.0727806091308594,0.0736475586891174,0.0713557600975037,0.125748258299741
2.272425177,-0.0832242965698242,0.0556247234344482,0.0557785183191299,0.11459335278531
2.277425177,-0.0831003189086914,0.0610277652740479,0.0480356812477112,0.11374303411639
2.282425177,-0.0678310394287109,0.0511723756790161,0.0859424471855164,0.120854317965263
2.287425177,-0.0448827743530273,0.0436680912971497,0.109675079584122,0.126293264717262
2.292425177,-0.0445709228515625,0.0452601313591003,0.11261485517025,0.129294826886072
2.297425177,-0.0266237258911133,0.0540661215782166,0.0941376984119415,0.111776001651219
2.302425177,-0.0267848968505859,0.0361934900283814,0.0590442717075348,0.074253790753094
2.307425177,-0.0117940902709961,0.0290486216545105,0.0459731817245483,0.0556458122703375
2.312425177,-0.00111865997314453,0.0229916572570801,0.0270729511976242,0.0355360716752921
2.317425177,0.0314521789550781,0.0169627666473389,0.0241850316524506,0.0431496323203845
2.322425177,0.0443735122680664,0.0174384117126465,0.0270983129739761,0.054839997812724
2.327425177,0.0634069442749023,0.0133844017982483,0.0242417901754379,0.0691899355736619
2.332425177,0.0628261566162109,0.0152145028114319,0.0167032778263092,0.0667653094136963
2.337425177,0.064204216003418,0.00947028398513794,0.00677573680877686,0.0652516531643032
2.342425177,0.0746927261352539,0.0115928649902344,-0.00450170040130615,0.075720955901923
2.347425177,0.0657262802124023,0.0107355117797852,-0.0210771560668945,0.0698530001617781
2.352425177,0.0473031997680664,0.00100606679916382,-0.0109343379735947,0.0485609372399542
2.357425177,0.0362844467163086,0.0131480693817139,0.00996226072311401,0.0398582418163458
2.362425177,0.0322408676147461,0.0102641582489014,-0.0000580698251724243,0.0338353345072081
2.367425177,0.0112056732177734,0.0141428112983704,0.0158967524766922,0.024047722615459
2.372425177,-0.00235176086425781,0.0275688171386719,0.023332417011261,0.036193537284653
2.377425177,-0.024322509765625,0.0158150792121887,0.0251380354166031,0.0383877849894093
2.382425177,-0.0305690765380859,0.0174683332443237,0.0170564651489258,0.0391220412312883
2.387425177,-0.0487251281738281,0.0120954513549805,0.00563916563987732,0.0505196817898792
2.392425177,-0.0440702438354492,0.0075109601020813,0.0196756571531296,0.0488439596857022
2.397425177,-0.0436601638793945,0.00738459825515747,0.0256550312042236,0.0511754123330272
2.402425177,-0.0432538986206055,0.00746840238571167,0.0187251269817352,0.0477211395563709
2.407425177,-0.0390844345092773,0.000224173069000244,0.0201574563980103,0.0439768839609236
2.412425177,-0.0423259735107422,0.00334256887435913,0.00309598445892334,0.0425704817929252
2.417425177,-0.0332622528076172,-0.00536912679672241,-0.0142031759023666,0.0365641243585935
2.422425177,-0.0298395156860352,-0.00457382202148438,-0.00707222521305084,0.0310053691112598
2.427425177,-0.015324592590332,-0.00142300128936768,-0.0137663930654526,0.0206490108422109
2.432425177,-0.00848293304443359,0.00198191404342651,-0.022924080491066,0.0245234908337444
2.437425177,0.000518798828125,0.010546863079071,-0.0174757689237595,0.0204183244295259
2.442425177,0.00607490539550781,-0.0150865316390991,-0.0271189510822296,0.0316219136084816
2.447425177,0.02001953125,-0.00303584337234497,-0.0415569990873337,0.0462275042544565
2.452425177,0.0423355102539063,-0.00136375427246094,-0.0333593487739563,0.0539166152943294
2.457425177,0.0387725830078125,-0.0234559774398804,-0.0396372526884079,0.0602047163554699
2.462425177,0.0447587966918945,-0.0263234972953796,-0.0334734171628952,0.0617798190975614
2.467425177,0.0475378036499023,-0.00788557529449463,-0.0406939685344696,0.0630715795637482
2.472425177,0.0377902984619141,-0.00892680883407593,-0.0276341289281845,0.047659622904721
2.477425177,0.0568103790283203,-0.00464612245559692,-0.0156158804893494,0.0591004343695667
2.482425177,0.0334806442260742,-0.00198942422866821,-0.0178731828927994,0.0380047630340465
2.487425177,0.0196037292480469,0.00587505102157593,-0.00687618553638458,0.0215894500269839
2.492425177,0.00275325775146484,0.000767946243286133,0.0010843425989151,0.00305711768671088
2.497425177,-0.00581455230712891,0.0132067203521729,-0.00467240810394287,0.0151676589651345
2.502425177,-0.0213651657104492,-0.00373107194900513,0.00653138756752014,0.022650612072983
2.507425177,-0.0423774719238281,0.00384372472763062,0.0191247910261154,0.0466517092744652
2.512425177,-0.0414237976074219,0.00108730792999268,0.0138113349676132,0.0436791279714109
2.517425177,-0.0453977584838867,0.011232316493988,0.0154296457767487,0.0492462727318359
2.522425177,-0.0485448837280273,0.0140356421470642,0.0171331167221069,0.0533586794744911
2.527425177,-0.0481052398681641,0.00403684377670288,0.041325107216835,0.0635466340330785
2.532425177,-0.0516319274902344,0.00266242027282715,0.0171693116426468,0.0544768728943605
2.537425177,-0.0445957183837891,-0.00273537635803223,0.0332264304161072,0.0556799430691404
2.542425177,-0.0349569320678711,-0.00794965028762817,0.0354879498481751,0.0504438165062868
2.547425177,-0.0291004180908203,-0.0156403183937073,0.0321694612503052,0.0461121256249586
2.552425177,-0.0128965377807617,-0.0191454887390137,0.029157429933548,0.0371890594949116
2.557425177,0.000888824462890625,-0.0098307728767395,0.02161805331707,0.0237649812434084
2.562425177,0.0167436599731445,-0.0132400393486023,0.0164667218923569,0.026959260396551
2.567425177,0.0277166366577148,-0.0158196687698364,0.00939148664474487,0.0332667084185006
2.572425177,0.0346899032592773,-0.00962966680526733,0.00913271307945252,0.0371419751643621
2.577425177,0.0343999862670898,-0.0118404626846313,0.0133633613586426,0.038757386890292
2.582425177,0.0412454605102539,-0.0261070132255554,0.0042223334312439,0.0489958391281019
2.587425177,0.0388774871826172,-0.0161282420158386,0.0178731083869934,0.045727750913086
2.592425177,0.0377416610717773,-0.00617951154708862,0.0158102065324783,0.0413833538275613
2.597425177,0.031865119934082,-0.014829695224762,0.0230972319841385,0.0420569596404908
2.602425177,0.0301427841186523,-0.0128387212753296,0.0210806429386139,0.0389591286493244
2.607425177,0.0297183990478516,-0.007457435131073,0.0256600379943848,0.0399654116777843
2.612425177,0.0165739059448242,-0.00220531225204468,0.0336146205663681,0.0375433146674317
2.617425177,0.0221452713012695,-0.00607424974441528,0.0162065625190735,0.0281062665547916
2.622425177,0.0124626159667969,-0.0120675563812256,0.0229943990707397,0.028804254935241
2.627425177,0.00276374816894531,-0.0126565098762512,0.0278819501399994,0.0307445717127171
2.632425177,-0.0151710510253906,-0.000714123249053955,0.0387628525495529,0.0416320729607382
2.637425177,-0.023198127746582,-0.00453680753707886,0.0495474487543106,0.0548970439243888
2.642425177,-0.0210227966308594,0.00285673141479492,0.0548301041126251,0.0587916593536877
2.647425177,-0.0381813049316406,0.000876903533935547,0.0523682683706284,0.0648152492722886
2.652425177,-0.0303239822387695,-0.0035938024520874,0.0547166764736176,0.0626607851786137
2.657425177,-0.0368366241455078,-0.000996530055999756,0.0457327663898468,0.0587317279863127
2.662425177,-0.0377397537231445,0.000229954719543457,0.0453751981258392,0.0590190689118001
2.667425177,-0.0362796783447266,0.00227135419845581,0.042228639125824,0.0557192253455729
2.672425177,-0.0209989547729492,-0.00309741497039795,0.013790637254715,0.025312679766203
2.677425177,-0.0181980133056641,-0.008353590965271,0.0225268602371216,0.0301398341473704
2.682425177,-0.0173053741455078,-0.00698715448379517,0.0148682594299316,0.0238612958695076
2.687425177,-0.0147037506103516,-0.0235124230384827,0.0137087106704712,0.0309348196600316
2.692425177,-0.00835037231445313,-0.0165441632270813,-0.000403746962547302,0.01853647933897
2.697425177,-0.00504589080810547,-0.0128670334815979,-0.0047595202922821,0.0146176125983873
2.702425177,0.007720947265625,-0.014833390712738,-0.00925201177597046,0.0191113115357895
2.707425177,0.0155048370361328,-0.015179455280304,0.000253021717071533,0.0216997662225447
2.712425177,0.0179042816162109,-0.0139986872673035,-0.0116461366415024,0.0255374048030119
2.717425177,0.0294675827026367,-0.00990468263626099,-0.00350272655487061,0.0312843453148692
2.722425177,0.0193948745727539,-0.00735044479370117,-0.0157219618558884,0.0260263382548547
2.727425177,0.0296630859375,-0.00835353136062622,-0.0173957049846649,0.0353877196982509
2.732425177,0.0260772705078125,-0.00999224185943604,-0.0133538991212845,0.0309547339878174
2.737425177,0.0144739151000977,-0.000568270683288574,-0.00865857303142548,0.0168756640413007
2.742425177,0.0151901245117188,0.00279545783996582,0.0099295973777771,0.0183616821479216
2.747425177,0.0033416748046875,-0.00141054391860962,0.00570881366729736,0.00676365124282225
2.752425177,0.00418281555175781,0.000793635845184326,-0.00482176244258881,0.00643235546651057
2.757425177,-0.000233650207519531,0.00599277019500732,0.00315387547016144,0.00677604733682758
2.762425177,-0.00858497619628906,0.00697344541549683,0.0132662653923035,0.0172720744183434
2.767425177,-0.0186853408813477,0.00230348110198975,0.0137142688035965,0.0232922553192405
2.772425177,-0.0116033554077148,0.0110591053962708,0.0185374319553375,0.0245066940320872
2.777425177,-0.0170621871948242,0.00527256727218628,0.0198242664337158,0.0266818240970498
2.782425177,-0.0140266418457031,-0.0008658766746521,0.0085885226726532,0.0164699467388943
2.787425177,-0.0104427337646484,0.00122511386871338,-0.00462010502815247,0.0114846403052861
2.792425177,-0.0176296234130859,-0.0115474462509155,0.0017353892326355,0.0211461275980676
2.797425177,-0.0265750885009766,-0.00397098064422607,0.0157057642936707,0.0311235449163474
2.802425177,-0.00643634796142578,-0.00920188426971436,-0.00572627782821655,0.012605217449917
2.807425177,-0.00504589080810547,-0.0000845193862915039,-0.00866863131523132,0.0100306194451485
2.812425177,-0.00510883331298828,0.000119984149932861,0.0034264475107193,0.00615265118138908
2.817425177,0.000885963439941406,0.00234264135360718,-0.00507168471813202,0.00565640217883039
2.822425177,0.000873565673828125,-0.00619751214981079,0.00204798579216003,0.00658532608444202
2.827425177,0.00216960906982422,-0.0105934739112854,-0.0144167840480804,0.0180214470926709
2.832425177,0.0163097381591797,-0.00426298379898071,-0.00789877772331238,0.0186164249847727
2.837425177,0.0196685791015625,-0.0131633281707764,-0.00777153670787811,0.024910298978693
2.842425177,0.016632080078125,-0.0157221555709839,0.00457799434661865,0.0233403148170939
2.847425177,0.0182714462280273,-0.00825572013854981,-0.0169281512498856,0.0262405214698328
2.852425177,0.00128173828125,-0.0240111351013184,-0.0130043774843216,0.0273366291929
2.857425177,0.0102176666259766,0.00290840864181519,-0.00002288818359375,0.0106235623016166
2.862425177,0.0102901458740234,-0.000159561634063721,0.0179860293865204,0.0207222058458196
2.867425177,0.00430965423583984,0.00517112016677856,0.0127178281545639,0.0143894668553347
2.872425177,0.0124139785766602,-0.0013662576675415,0.0146586149930954,0.0192574275964287
2.877425177,0.00654888153076172,-0.0069507360458374,0.0100321620702744,0.0138508070771023
2.882425177,-0.00461864471435547,0.0065949559211731,0.0175219625234604,0.0192832697764982
2.887425177,-0.00556278228759766,-0.00075751543045044,0.0159066766500473,0.0168683353789205
2.892425177,-0.00962638854980469,0.00847989320755005,0.0158011168241501,0.0203531628552838
2.897425177,-0.00729560852050781,0.0039169192314148,0.028355211019516,0.0295395692573743
2.902425177,-0.017003059387207,0.00628942251205444,0.0327688306570053,0.037449394209887
2.907425177,-0.0119819641113281,-0.00545042753219605,0.0198879539966583,0.0238496402157784
2.912425177,-0.00926876068115234,-0.00341588258743286,0.0154988169670105,0.0183791051412329
2.917425177,-0.0146865844726563,-0.00732296705245972,0.014213889837265,0.0217107409875799
2.922425177,-0.0154800415039063,-0.00166624784469605,0.0143756419420242,0.0211912044982795
2.927425177,-0.00661182403564453,-0.00308698415756226,0.0262096077203751,0.0272064188220962
2.932425177,-0.00417709350585938,-0.00141030550003052,0.00294184684753418,0.00530014477485811
2.937425177,0.00378990173339844,0.00583606958389282,-0.00573538243770599,0.00901763134329641
2.942425177,-0.00890922546386719,-0.0121495127677917,-0.00480538606643677,0.0158138133955178
2.947425177,-0.00245094299316406,0.00739389657974243,-0.0000567436218261719,0.00778973992032371
2.952425177,0.0086669921875,-0.00218844413757324,-0.00322921574115753,0.00950441348134667
2.957425177,0.0123176574707031,0.00417172908782959,-0.0049932599067688,0.0139305654459665
2.962425177,0.00991916656494141,-0.0105301141738892,-0.0100142657756805,0.0175942800047106
2.967425177,-0.0023956298828125,-0.00379717350006104,-0.00693513453006744,0.00826157733578303
2.972425177,0.000615119934082031,-0.00720089673995972,-0.00146853923797607,0.00737481483742764
2.977425177,0.0107641220092773,-0.00628024339675903,-0.00395587086677551,0.0130750408820679
2.982425177,0.0144672393798828,-0.00429165363311768,0.0191707313060761,0.0243974639049072
2.987425177,0.00922107696533203,-0.00227600336074829,0.0128567665815353,0.0159845205943375
2.992425177,0.00139713287353516,-0.00812602043151856,0.0158680230379105,0.0178823472578805
2.997425177,0.00835323333740234,-0.00398743152618408,0.025091364979744,0.0267442089789887
3.002425177,0.0139322280883789,0.0153171420097351,0.0028025209903717,0.0208943997940711
3.007425177,0.00825977325439453,0.00256145000457764,0.0193534344434738,0.0211976485747311
3.012425177,-0.00107002258300781,0.00609636306762695,0.02066570520401,0.0215727133796266
3.017425177,-0.00176620483398438,0.0138798356056213,0.0181938707828522,0.0229518245465973
3.022425177,-0.00589847564697266,0.0129925608634949,0.0128923356533051,0.0192304698680773
3.027425177,-0.00968647003173828,-0.0111314058303833,0.0181470215320587,0.0233891061804734
3.032425177,-0.00452518463134766,0.00081932544708252,0.0103220790624619,0.0113001728441531
3.037425177,0.00106239318847656,0.00195330381393433,0.0291216671466827,0.0292064303275603
3.042425177,0.00465297698974609,0.00361478328704834,0.0248466283082962,0.0255356964144324
3.047425177,0.00184726715087891,0.00358468294143677,0.0248572081327438,0.0251821989483026
3.052425177,0.00697898864746094,-0.00513732433319092,0.00804287195205689,0.0118231202769391
3.057425177,0.000514984130859375,-0.00416582822799683,0.00456245243549347,0.00619962141637314
3.062425177,-0.00278854370117188,-0.00329309701919556,0.00158515572547913,0.00459708414380238
3.067425177,0.0150213241577148,-0.00139546394348145,0.00825235247612,0.0171956046843031
3.072425177,0.0023345947265625,-0.00216346979141235,-0.000266656279563904,0.00319406318770905
3.077425177,-0.00324630737304688,0.00314533710479736,-0.0109166651964188,0.01181546596939
3.082425177,0.00589752197265625,-0.00974082946777344,-0.0269801467657089,0.0292846861625219
3.087425177,0.00907039642333984,-0.00389909744262695,0.00173358619213104,0.0100239898857283
3.092425177,0.00899028778076172,-0.0111868977546692,0.00224505364894867,0.0145262597264745
3.097425177,0.00755691528320313,0.000123858451843262,-0.00610117614269257,0.00971322087866651
3.102425177,0.00193119049072266,-0.0033230185508728,0.00000761449337005615,0.00384343687100643
3.107425177,0.00227928161621094,0.00255537033081055,-0.00211320817470551,0.00402376577390212
3.112425177,0.000266075134277344,-0.00152868032455444,-0.00410747528076172,0.0043907872521712
3.117425177,-0.00072479248046875,0.0101282596588135,-0.00502544641494751,0.0113296990041925
3.122425177,-0.010218620300293,-0.00189387798309326,-0.0050605982542038,0.0115592659519044
3.127425177,-0.0115861892700195,0.00600606203079224,-0.00223024189472199,0.013239582388709
3.132425177,-0.0102806091308594,-0.0130829811096191,0.004206582903862,0.0171624782168318
3.137425177,-0.00215721130371094,-0.00463777780532837,0.0040750652551651,0.00653977831537954
3.142425177,0.00340938568115234,0.00540536642074585,-0.00378376245498657,0.00742689404671559
3.147425177,-0.000429153442382813,0.0100076794624329,-0.0147959589958191,0.017867798507535
3.152425177,-0.018000602722168,0.0179363489151001,-0.00512433052062988,0.0259228292061301
3.157425177,-0.0114030838012695,0.0113115906715393,-0.00785008072853088,0.0178775325798524
3.162425177,-0.00744152069091797,0.00972312688827515,-0.0113088190555573,0.0166674777669027
3.167425177,-0.00655651092529297,-0.00142055749893188,-0.00501242280006409,0.00837437767525802
3.172425177,0.00622081756591797,0.00348281860351563,-0.00259852409362793,0.00758820954366661
3.177425177,-0.0143766403198242,0.00514441728591919,-0.0253430008888245,0.0295875059805354
3.182425177,-0.000136375427246094,0.00992542505264282,-0.0109614133834839,0.0147880101466156
3.187425177,0.00480270385742188,0.0066254734992981,-0.00722546875476837,0.0109165132784296
3.192425177,0.00665473937988281,0.0102741718292236,-0.0111014693975449,0.0165253376902017
3.197425177,-0.000276565551757813,0.00960004329681397,-0.0196261554956436,0.021850018291624
3.202425177,0.00378036499023438,0.00101333856582642,-0.00342714786529541,0.00520224538050444
3.207425177,0.00942420959472656,-0.00886666774749756,-0.0336143225431442,0.036018831234014
3.212425177,0.0176095962524414,0.00330650806427002,-0.0216327458620071,0.0280892607464716
3.217425177,0.0119009017944336,0.00768792629241943,-0.0134533941745758,0.0195378987870993
3.222425177,0.0139245986938477,0.00334388017654419,-0.00549103319644928,0.015337125838445
3.227425177,0.0215482711791992,0.00989162921905518,-0.00554649531841278,0.0243502757630535
3.232425177,0.0102262496948242,0.00982886552810669,-0.00841858983039856,0.0164941030408745
3.237425177,0.00891017913818359,0.0147554874420166,-0.0180084407329559,0.0249282899445272
3.242425177,0.01263427734375,0.0160080194473267,-0.0181603580713272,0.0273071466086005
3.247425177,0.00144481658935547,0.0065959095954895,-0.0202607959508896,0.0213563426394205
3.252425177,0.00236797332763672,0.0120674967765808,-0.0207800269126892,0.0241462480444742
3.257425177,0.00789356231689453,0.00362056493759155,0.00177167356014252,0.00886316217394913
3.262425177,0.0129470825195313,0.00828903913497925,0.000298053026199341,0.0153760837392099
3.267425177,-0.00952720642089844,0.013530433177948,-0.0051586776971817,0.0173335581965367
3.272425177,0.00704097747802734,0.00781130790710449,0.00555247068405151,0.0118920908911315
3.277425177,0.00339126586914063,0.00803959369659424,0.00641252100467682,0.0108284891206916
3.282425177,0.0006103515625,0.00801795721054077,0.014177605509758,0.0162992228296391
3.287425177,0.00219631195068359,-0.00316822528839111,0.00786593556404114,0.00875981620585522
3.292425177,-0.00540065765380859,-0.00118058919906616,-0.00705611705780029,0.00896379840714712
3.297425177,0.00120353698730469,0.00482821464538574,0.00814966857433319,0.00954867822335646
3.302425177,-0.0165901184082031,0.00968319177627564,0.0239806622266769,0.0307256959661503
3.307425177,-0.0018463134765625,-0.00295406579971313,0.0181883871555328,0.0185189850024866
3.312425177,-0.00503921508789063,0.00582617521286011,0.0124909281730652,0.0146751931141516
3.317425177,-0.0106439590454102,-0.0013803243637085,0.0104731619358063,0.0149962088690121
3.322425177,-0.00160312652587891,0.00322598218917847,-0.0030786544084549,0.00473868005984494
3.327425177,-0.000518798828125,-0.000535368919372559,-0.00227950513362885,0.00239831519157393
3.332425177,0.00233745574951172,0.00900375843048096,0.0129583328962326,0.0159514813326213
3.337425177,-0.00108432769775391,0.0116328001022339,0.0238232016563416,0.0265338037592307
3.342425177,-0.00404453277587891,-0.00449973344802856,0.0137807726860046,0.0150504332928257
3.347425177,-0.0095672607421875,0.00117605924606323,0.00442926585674286,0.0106082038766683
3.352425177,-0.00130462646484375,0.0121492147445679,0.00863093137741089,0.0149598945706169
3.357425177,0.0037841796875,0.00815111398696899,0.0199623852968216,0.0218919506183119
3.362425177,0.003753662109375,0.0105834007263184,0.0042276531457901,0.0119988083277592
3.367425177,-0.000789642333984375,0.00253689289093018,0.00686617195606232,0.00736231470978313
3.372425177,-0.00575447082519531,-0.00258743762969971,0.00311358273029327,0.00703584859018374
3.377425177,0.00203990936279297,0.00499314069747925,0.0239404290914536,0.0245405140393625
3.382425177,-0.000912666320800781,-0.00751107931137085,0.0143668055534363,0.0162374374223605
3.387425177,-0.0217218399047852,-0.00696837902069092,-0.00471435487270355,0.0232942434281714
3.392425177,-0.0148277282714844,-0.00607705116271973,0.00661514699459076,0.0173364427229848
3.397425177,-0.0220766067504883,-0.00305122137069702,0.0126901119947433,0.0256461587749088
3.402425177,-0.000451087951660156,-0.00616121292114258,0.0122227817773819,0.0136952699636512
3.407425177,0.000322341918945313,-0.0124372243881226,0.0245749056339264,0.0275447715857222
3.412425177,-0.00526618957519531,0.00176173448562622,-0.0072474479675293,0.00913027727299588
3.417425177,-0.0129480361938477,-0.0136630535125732,0.0167852789163589,0.0252205523505056
3.422425177,-0.00668144226074219,-0.00116062164306641,-0.0028139054775238,0.00734212348836659
3.427425177,-0.00479316711425781,-0.00968551635742188,-0.000212773680686951,0.0108087441793338
3.432425177,0.00635528564453125,-0.0150973796844482,-0.0075407475233078,0.0180328423208946
3.437425177,0.00926017761230469,-0.0123218297958374,0.00452481210231781,0.0160640064582375
3.442425177,0.0183992385864258,-0.00215339660644531,-0.0114811062812805,0.0217941482730326
3.447425177,0.00997066497802734,-0.00578117370605469,-0.00754298269748688,0.0137743499845991
3.452425177,0.0119380950927734,0.00513416528701782,-0.0112037658691406,0.0171581507537683
3.457425177,0.00628852844238281,0.00431454181671143,-0.00848254561424255,0.0114067717236962
3.462425177,0.0107889175415039,-0.00327533483505249,-0.0129842609167099,0.0171964993981996
3.467425177,0.00927925109863281,0.00230288505554199,-0.00736679136753082,0.012069689125377
3.472425177,0.0131416320800781,-0.00664335489273071,-0.00272342562675476,0.0149751028411618
3.477425177,0.00748443603515625,-0.00449961423873901,-0.0212537795305252,0.0229779558576036
3.482425177,-0.00183486938476563,0.00107836723327637,-0.00281168520450592,0.00352635721931171
3.487425177,-0.0131502151489258,-0.00182664394378662,0.00539898872375488,0.0143322665967265
3.492425177,0.002227783203125,0.00506842136383057,-0.00330205261707306,0.00644635281437334
3.497425177,0.0128698348999023,0.00323611497879028,-0.0117133408784866,0.0177004927909457
3.502425177,-0.00134468078613281,0.00233501195907593,0.010683074593544,0.0110176463020396
3.507425177,-0.00688362121582031,0.000162482261657715,0.00611273944377899,0.00920740055801725
3.512425177,-0.0123748779296875,0.00930666923522949,0.0182776749134064,0.0239546466529732
3.517425177,-0.0150585174560547,0.00925040245056152,0.00410538911819458,0.0181434041261129
3.522425177,-0.00778770446777344,0.0107545852661133,0.0103141218423843,0.0168134040129603
3.527425177,-0.0185117721557617,-0.0057341456413269,0.00174839794635773,0.0194582381001367
3.532425177,-0.00610446929931641,0.0118038654327393,0.0268720537424088,0.0299783764889865
3.537425177,-0.012171745300293,0.00916832685470581,0.00765796005725861,0.0170544408647276
3.542425177,-0.00507736206054688,0.00414437055587769,0.0105797946453094,0.0124453793648577
3.547425177,0.000689506530761719,0.00106078386306763,0.00236868858337402,0.00268539890241919
3.552425177,-0.00657272338867188,0.00462102890014648,0.00798657536506653,0.0113287239750058
3.557425177,-0.00974464416503906,0.00223255157470703,-0.0121970623731613,0.0157705645736525
3.562425177,0.00347995758056641,-0.0154656171798706,0.00687170028686523,0.0172776064415576
3.567425177,-0.00226402282714844,-0.00273746252059937,0.00867867469787598,0.00937757404263427
3.572425177,0.00454330444335938,-0.00919878482818604,-0.00823955237865448,0.0131586276252847
3.577425177,0.00153827667236328,-0.00800633430480957,-0.00514388084411621,0.00963987522012465
3.582425177,-0.000257492065429688,-0.00638276338577271,-0.0032660961151123,0.00717449332257488
3.587425177,0.0134801864624023,-0.0027967095375061,0.0150603502988815,0.0204046848155842
3.592425177,0.00436973571777344,-0.00998032093048096,0.00317706167697907,0.0113487936371189
3.597425177,0.00578403472900391,-0.0205506086349487,0.0152964740991592,0.0262633716967072
3.602425177,0.00225734710693359,-0.00497573614120483,0.00374430418014526,0.00662369835526398
3.607425177,-0.00829124450683594,-0.00251251459121704,0.015616312623024,0.0178585185551107
3.612425177,0.00172328948974609,0.00136369466781616,0.00160129368305206,0.00271910486592224
3.617425177,0.00432395935058594,-0.00721734762191773,-0.0000889301300048828,0.00841395505865961
3.622425177,0.00428581237792969,-0.00662136077880859,0.0212615430355072,0.0226773856198788
3.627425177,0.00425052642822266,0.000487387180328369,0.00889059901237488,0.00986647211415554
3.632425177,0.00657272338867188,0.00444942712783814,0.00869594514369965,0.0117735957316433
3.637425177,-0.00693225860595703,-0.00434035062789917,0.0148567706346512,0.0169593185783982
3.642425177,-0.00284099578857422,-0.00350886583328247,0.0177897959947586,0.0183537526964325
3.647425177,0.00420284271240234,-0.00265789031982422,0.00799530744552612,0.0094155833046017
3.652425177,0.000302314758300781,0.00422155857086182,-0.00284869968891144,0.00510176840888603
3.657425177,0.00419902801513672,-0.0058901309967041,0.0078258216381073,0.0106568740135983
3.662425177,0.00662708282470703,-0.00519394874572754,-0.00893902778625488,0.0122801281793884
3.667425177,0.00232410430908203,-0.00740468502044678,0.0104159414768219,0.0129893286177578
3.672425177,0.00750637054443359,-0.00731188058853149,0.00170867145061493,0.0106173798376733
3.677425177,-0.000982284545898438,-0.00233519077301025,0.00323045253753662,0.00410534072553545
3.682425177,-0.00734806060791016,-0.000516414642333984,0.0106188207864761,0.012923623086257
3.687425177,0.00236129760742188,-0.0136357545852661,0.014912486076355,0.020344330180124
3.692425177,0.00447177886962891,-0.0165272951126099,0.00539092719554901,0.0179502196651146
3.697425177,0.00543212890625,-0.00631159543991089,0.0108389258384705,0.0136684518063709
3.702425177,0.00401115417480469,-0.00215858221054077,-0.00887663662433624,0.00997714952951111
3.707425177,0.00824356079101563,-0.00217366218566895,-0.00169384479522705,0.0086919624943332
3.712425177,0.00125026702880859,-0.00325876474380493,0.00731733441352844,0.00810716338913923
3.717425177,0.00492477416992188,-0.00513356924057007,-0.000212743878364563,0.00711703545939167
3.722425177,-0.00622463226318359,-0.00223398208618164,-0.00653092563152313,0.00929460662845569
3.727425177,-0.00687026977539063,-0.00224852561950684,0.00466082990169525,0.00860115164502761
3.732425177,0.00301551818847656,-0.00226432085037231,-0.00568079948425293,0.00681850288837309
3.737425177,0.00324058532714844,0.0112767219543457,0.00283230841159821,0.0120701210531031
3.742425177,-0.00674819946289063,0.0000404715538024902,0.0037790834903717,0.00773442344100868
3.747425177,-0.00833511352539063,-0.00128740072250366,-0.00700052082538605,0.0109607850963385
3.752425177,-0.0137701034545898,0.00154417753219605,-0.00413171947002411,0.0144592994014241
3.757425177,-0.00531673431396484,-0.0024147629737854,-0.00554944574832916,0.00805574900915518
3.762425177,-0.00933551788330078,-0.00236785411834717,0.0022159069776535,0.00988275624554283
3.767425177,-0.00005340576171875,0.00292080640792847,-0.00215509533882141,0.00363020635327946
3.772425177,0.000505447387695313,0.00475728511810303,-0.0000788271427154541,0.0047847102812063
3.777425177,-0.00587081909179688,-0.00427627563476563,0.0071970522403717,0.0102249993185201
3.782425177,0.00528717041015625,0.00169610977172852,-0.00628212094306946,0.00838427115777732
3.787425177,-0.00201034545898438,0.0110136270523071,-0.00995354354381561,0.0149804705797383
3.792425177,-0.000737190246582031,-0.00596863031387329,-0.00191281735897064,0.00631085315406105
3.797425177,-0.00413036346435547,-0.0070231556892395,0.00232701003551483,0.00847346410202855
3.802425177,0.00160789489746094,-0.0110597610473633,-0.00477826595306397,0.0121546479152736
3.807425177,0.00342845916748047,-0.0147618651390076,-0.00134092569351196,0.0152139763494245
3.812425177,0.00484561920166016,-0.00396543741226196,-0.0012776106595993,0.00639038405071137
3.817425177,-0.000543594360351563,0.00151687860488892,0.0251459330320358,0.0251975070906272
3.822425177,0.0177812576293945,-0.00674790143966675,-0.00948141515254974,0.0212509889185741
3.827425177,-0.000708580017089844,-0.0106455087661743,0.0137836933135986,0.0174304085980409
3.832425177,0.00218677520751953,-0.00394129753112793,-0.00653822720050812,0.00794129882088323
3.837425177,0.00197124481201172,-0.0027921199798584,0.00566914677619934,0.00661974057353451
3.842425177,-0.00858497619628906,-0.00408625602722168,-0.00110256671905518,0.0095715702985886
3.847425177,-0.00632762908935547,-0.00751620531082153,0.00554877519607544,0.0112836668837511
3.852425177,-0.000729560852050781,0.00181227922439575,-0.00595742464065552,0.00626957122721411
3.857425177,-0.00541019439697266,0.00259941816329956,-0.00615061819553375,0.00859402597086819
3.862425177,-0.00226974487304688,0.0033649206161499,-0.00456230342388153,0.00610647566713193
3.867425177,-0.000590324401855469,0.00160044431686401,0.00336898863315582,0.00377624010374625
3.872425177,0.000979423522949219,0.00635892152786255,-0.00457629561424255,0.00789541860725292
3.877425177,0.000151634216308594,-0.00561285018920898,0.00503283739089966,0.00754032707415909
3.882425177,-0.000617027282714844,-0.017169177532196,0.0126225650310516,0.0213187834494093
3.887425177,0.000235557556152344,0.00483059883117676,-0.00251090526580811,0.00544929515477824
3.892425177,0.00248432159423828,-0.00131684541702271,-0.0014527291059494,0.00316486294982972
3.897425177,0.00430011749267578,-0.00060802698135376,0.00539056956768036,0.00692235130030772
3.902425177,-0.000967979431152344,-0.00282049179077148,0.00631265342235565,0.00698152929892312
3.907425177,-0.00538349151611328,-0.00272941589355469,-0.00859987735748291,0.0105066446874252
3.912425177,-0.000722885131835938,-0.00188660621643066,-0.00627757608890533,0.00659468024105038
3.917425177,-0.00720787048339844,0.0184481739997864,0.00131213665008545,0.0198496907638466
3.922425177,-0.011225700378418,0.00880956649780273,0.0110314935445786,0.0180365922693091
3.927425177,-0.0102634429931641,0.00418055057525635,0.0105512142181396,0.0153017445627378
3.932425177,-0.00779342651367188,0.00445824861526489,0.0160358250141144,0.0183782796099856
3.937425177,-0.000787734985351563,0.0115221738815308,0.00487437844276428,0.0125355726860268
3.942425177,0.00429058074951172,0.0163049697875977,0.0128078162670136,0.0211731263745374
3.947425177,-0.000256538391113281,0.00818026065826416,0.00971540808677673,0.0127032133996035
3.952425177,0.0015869140625,0.0135349035263062,0.00422413647174835,0.0142672785996535
3.957425177,0.0044403076171875,0.0107588171958923,0.0156823247671127,0.0195295619329026
3.962425177,0.00436782836914063,-0.000789403915405273,0.00744627416133881,0.00866879934533894
3.967425177,0.0128469467163086,0.004799485206604,-0.000492274761199951,0.0137230256365204
3.972425177,0.00345230102539063,0.00959956645965576,-0.00989419221878052,0.0142114425110697
3.977425177,-0.00544071197509766,0.00572049617767334,0.000655889511108398,0.00792184412656096
3.982425177,-0.00349330902099609,0.00477594137191773,0.0110147297382355,0.012503483319081
3.987425177,-0.00350093841552734,-0.00425595045089722,0.0165600478649139,0.0174529329717973
3.992425177,-0.0126543045043945,-0.00680959224700928,-0.00367672741413116,0.0148330810534525
3.997425177,-0.0280895233154297,0.0101699233055115,-0.00972422957420349,0.0314167041705502
4.002425177,-0.0122270584106445,0.0053895115852356,-0.0225606709718704,0.026220825067219
4.007425177,-0.0311803817749023,-0.00244432687759399,-0.0150589793920517,0.0347125885212185
4.012425177,-0.0218973159790039,-0.00748920440673828,-0.0123355835676193,0.0262249356850302
4.017425177,-0.0161781311035156,-0.00979423522949219,-0.015709400177002,0.024585447395855
4.022425177,-0.0141658782958984,0.00320190191268921,-0.019558921456337,0.024361356536282
4.027425177,-0.000589370727539063,0.000966489315032959,-0.00501096248626709,0.00513723704819321
4.032425177,0.00498294830322266,0.000435948371887207,0.00301279127597809,0.00583924105069746
4.037425177,0.00634002685546875,-0.00327444076538086,-0.0113010257482529,0.0133652940789467
4.042425177,0.0140743255615234,-0.00462472438812256,-0.00465978682041168,0.0155302391768295
4.047425177,0.0251646041870117,-0.00900900363922119,-0.0107469260692596,0.0288082604542274
4.052425177,0.0324239730834961,-0.0167228579521179,-0.0105588287115097,0.0379796902615726
4.057425177,0.0195503234863281,-0.00280255079269409,-0.0141334533691406,0.024286291266955
4.062425177,0.0143747329711914,-0.00705838203430176,-0.00885772705078125,0.0183006293181779
4.067425177,0.0217981338500977,-0.0173171758651733,-0.00771969556808472,0.0288900834016799
4.072425177,0.047459602355957,-0.00681138038635254,-0.00991916656494141,0.0489611950823936
4.077425177,0.0788764953613281,-0.0207804441452026,-0.0113190561532974,0.0823495562317066
4.082425177,0.12916374206543,-0.0257833600044251,-0.0149754732847214,0.13256062280166
4.087425177,0.352706909179688,-0.0343465805053711,-0.00595775246620178,0.354425374641756
4.092425177,0.593721389770508,-0.0713717937469482,-0.019159272313118,0.598302682034143
4.097425177,0.844284057617188,-0.0929285287857056,-0.00413255393505096,0.84939293581407
4.102425177,1.02508544921875,-0.103744626045227,0.0225367546081543,1.03056830484036
4.107425177,1.1343297958374,-0.125112056732178,0.0585543066263199,1.14270981412114
4.112425177,1.17019271850586,-0.129927098751068,0.0580636858940125,1.17881442180421
4.117425177,1.1403923034668,-0.132443070411682,0.0598068535327911,1.1496141232761
4.122425177,1.09542083740234,-0.120829939842224,0.0735390186309815,1.1045155827958
4.127425177,1.07287311553955,-0.118165969848633,0.0585694313049316,1.08094879469899
4.132425177,1.08531284332275,-0.126616775989532,0.0261294543743134,1.09298605857038
4.137425177,1.07925605773926,-0.122619330883026,0.022086501121521,1.08642392831016
4.142425177,1.01626300811768,-0.103884637355804,0.030597984790802,1.02201700388017
4.147425177,0.903107643127441,-0.103503227233887,0.0516045689582825,0.910483039194252
4.152425177,0.825231552124023,-0.0977032780647278,0.0645827651023865,0.833501037020284
4.157425177,0.809004783630371,-0.0983660817146301,0.0609897673130035,0.817241933386685
4.162425177,0.800735473632813,-0.0961824655532837,0.0613927990198135,0.808824728346853
4.167425177,0.824010848999023,-0.0915670990943909,0.0517128556966782,0.830694066638831
4.172425177,0.83916187286377,-0.0880441069602966,0.0312582403421402,0.844346783749398
4.177425177,0.799777984619141,-0.0732493996620178,0.0432150512933731,0.804287162579753
4.182425177,0.667470932006836,-0.0656309127807617,0.0375953912734985,0.671742715056529
4.187425177,0.565784454345703,-0.0751416683197022,0.0470847189426422,0.572691269232421
4.192425177,0.524349212646484,-0.0729871988296509,0.0363740921020508,0.530652713714191
4.197425177,0.510508537292481,-0.0619155764579773,0.0128580629825592,0.514410181703565
4.202425177,0.458213806152344,-0.0694274306297302,0.0237011909484863,0.464049358069635
4.207425177,0.340397834777832,-0.0462168455123901,0.0261289030313492,0.344513283204253
4.212425177,0.18936824798584,-0.0292974710464478,0.0404133349657059,0.195836443998543
4.217425177,0.0758533477783203,-0.0276799201965332,0.0424436777830124,0.0912215661727721
4.222425177,-0.0325222015380859,-0.0192617774009705,0.0228129476308823,0.0441490684062279
4.227425177,-0.14675235748291,0.00653535127639771,0.0141436904668808,0.147577129742791
4.232425177,-0.203474998474121,-0.00355541706085205,0.0020068883895874,0.203515954154775
4.237425177,-0.317714691162109,0.0201749801635742,0.005400151014328,0.318400402694175
4.242425177,-0.363784790039063,0.0253297686576843,0.0020429790019989,0.364671282674163
4.247425177,-0.373557090759277,0.0190753936767578,0.00600765645503998,0.374092051020254
4.252425177,-0.373148918151855,0.021392285823822,0.0100439488887787,0.373896544407606
4.257425177,-0.386235237121582,0.018760621547699,0.00709132850170136,0.386755615673696
4.262425177,-0.34999942779541,0.0170941352844238,0.0213663429021835,0.351067414505036
4.267425177,-0.328848838806152,0.0173165798187256,-0.00298038125038147,0.329317939677101
4.272425177,-0.314727783203125,0.00588041543960571,-0.0164768695831299,0.315213648240293
4.277425177,-0.352224349975586,0.0160114169120789,-0.0134708285331726,0.352845322214461
4.282425177,-0.42308235168457,0.0262393355369568,-0.00632378458976746,0.423942412702368
4.287425177,-0.456521987915039,0.0376346111297607,-0.0100764632225037,0.458181431875913
4.292425177,-0.503854751586914,0.0392507910728455,-0.00796478986740112,0.505444035650028
4.297425177,-0.630607604980469,0.0416649580001831,-0.022298276424408,0.632375784890487
4.302425177,-0.763955116271973,0.0658988356590271,-0.0275329053401947,0.767286215890662
4.307425177,-0.922713279724121,0.0826422572135925,-0.0306214839220047,0.926912732965832
4.312425177,-1.07996845245361,0.0984522104263306,-0.0305037647485733,1.08487564987731
4.317425177,-1.24617290496826,0.116250813007355,-0.0499619096517563,1.25258027807321
4.322425177,-1.40496635437012,0.13388067483902,-0.0590356737375259,1.41256493754484
4.327425177,-1.51149845123291,0.150173783302307,-0.0592207163572311,1.52009434789972
4.332425177,-1.58449077606201,0.161945164203644,-0.0626175552606583,1.59397560014618
4.337425177,-1.63717651367188,0.176935791969299,-0.0670296102762222,1.64807347531971
4.342425177,-1.66374683380127,0.180040597915649,-0.0746874213218689,1.67512577282582
4.347425177,-1.6669225692749,0.180202841758728,-0.071949377655983,1.67817777040487
4.352425177,-1.63018989562988,0.170276343822479,-0.0709087699651718,1.64059171725853
4.357425177,-1.58947849273682,0.163362681865692,-0.0658121407032013,1.59920620389092
4.362425177,-1.57202434539795,0.173113346099854,-0.0607509613037109,1.58269373298218
4.367425177,-1.53615856170654,0.173615396022797,-0.0629954189062119,1.54722133363124
4.372425177,-1.49032497406006,0.168869972229004,-0.0678489357233048,1.50139570863464
4.377425177,-1.39666843414307,0.154773533344269,-0.0474437922239304,1.40601866096297
4.382425177,-1.33930110931396,0.148731291294098,-0.0492247939109802,1.3484329937951
4.387425177,-1.29185104370117,0.149486839771271,-0.0618526190519333,1.30194131237172
4.392425177,-1.24975776672363,0.13950389623642,-0.0662453323602676,1.25926337857126
4.397425177,-1.18638324737549,0.120524346828461,-0.0751525163650513,1.1948553169935
4.402425177,-1.14204788208008,0.123023331165314,-0.0531890690326691,1.14988572564371
4.407425177,-1.14857769012451,0.109892547130585,-0.0624599754810333,1.15551215082478
4.412425177,-1.14157104492188,0.117591083049774,-0.0353643596172333,1.14815623995516
4.417425177,-1.07717990875244,0.100263178348541,-0.0440379679203033,1.08273200902671
4.422425177,-0.976266860961914,0.104596555233002,-0.0764157027006149,0.984823224136326
4.427425177,-0.889053344726563,0.0873176455497742,-0.0879003256559372,0.897645079217986
4.432425177,-0.812373161315918,0.0891345739364624,-0.078667476773262,0.821026002876355
4.437425177,-0.721148490905762,0.0666448473930359,-0.0435438305139542,0.725529287345126
4.442425177,-0.614019393920898,0.0687575340270996,-0.0356254279613495,0.618883337725217
4.447425177,-0.506786346435547,0.0528362989425659,-0.0496891587972641,0.511950278759
4.452425177,-0.438216209411621,0.050105631351471,-0.0569071620702744,0.44472738343744
4.457425177,-0.353416442871094,0.0399833917617798,-0.053871288895607,0.359727632349403
4.462425177,-0.277631759643555,0.0297228097915649,-0.0550335496664047,0.284590110463394
4.467425177,-0.196807861328125,0.0317509174346924,-0.0618536174297333,0.208727873145009
4.472425177,-0.0813169479370117,0.0152782201766968,-0.0377024710178375,0.0909249490206576
4.477425177,0.02978515625,-0.00813060998916626,-0.0307721346616745,0.0435911300985542
4.482425177,0.114809989929199,-0.0111956596374512,-0.0390224307775497,0.121776133482917
4.487425177,0.178130149841309,-0.0213268995285034,-0.0335436463356018,0.182511268516423
4.492425177,0.242542266845703,-0.0232012867927551,-0.0229178667068481,0.244724905822609
4.497425177,0.323375701904297,-0.0185213088989258,-0.0179124176502228,0.324400582877871
4.502425177,0.391310691833496,-0.0395714044570923,-0.0308612436056137,0.394515360855317
4.507425177,0.467043876647949,-0.0391817092895508,-0.0172160118818283,0.469000618466875
4.512425177,0.523180961608887,-0.0312643647193909,-0.00102882087230682,0.524115290335718
4.517425177,0.540365219116211,-0.0329362750053406,0.00849440693855286,0.541434689681937
4.522425177,0.548327445983887,-0.0302333831787109,0.0278662145137787,0.549866866967788
4.527425177,0.576582908630371,-0.0277817845344543,0.0248733311891556,0.57778747016617
4.532425177,0.639829635620117,-0.0207978487014771,0.00275111198425293,0.640173477852317
4.537425177,0.715981483459473,-0.0295818448066711,-0.0112930089235306,0.716681311497335
4.542425177,0.715255737304688,-0.0312547087669373,0.0187775939702988,0.716184490618648
4.547425177,0.681041717529297,-0.019503653049469,0.0279179215431213,0.681892677655961
4.552425177,0.691040992736816,-0.0094984769821167,0.0317408591508865,0.691834775685135
4.557425177,0.765222549438477,-0.0236644744873047,0.00631138682365418,0.765614388008428
4.562425177,0.86655330657959,-0.0416120290756226,0.0113604068756104,0.867626217303391
4.567425177,0.948617935180664,-0.0371729135513306,-0.00490999221801758,0.949358689048508
4.572425177,1.04753875732422,-0.0371019244194031,0.0208221524953842,1.04840238597903
4.577425177,1.14967918395996,-0.0390517711639404,0.0334088504314423,1.15082727554965
4.582425177,1.20930957794189,-0.0408591628074646,0.0747901499271393,1.21230882740886
4.587425177,1.18567562103271,-0.059396505355835,0.063340350985527,1.18885096762495
4.592425177,1.17010498046875,-0.069195568561554,0.0814088881015778,1.17497280780802
4.597425177,1.20392513275146,-0.0801246166229248,0.0661961138248444,1.20840291498536
4.602425177,1.2410364151001,-0.0821530222892761,0.046896904706955,1.24463642175009
4.607425177,1.22961711883545,-0.0749658346176148,0.0733745843172073,1.23408345135847
4.612425177,1.15004539489746,-0.0640822649002075,0.100671827793121,1.15622046509773
4.617425177,1.0535192489624,-0.0734550952911377,0.101132616400719,1.06090822650151
4.622425177,0.951831817626953,-0.0403866767883301,0.126767307519913,0.961085242298977
4.627425177,0.953371047973633,-0.0510326027870178,0.0880867540836334,0.958790883303836
4.632425177,0.957566261291504,-0.0606448650360107,0.0777097642421722,0.96262648617083
4.637425177,0.956759452819824,-0.0579914450645447,0.0814927220344544,0.96197334786643
4.642425177,0.965950965881348,-0.0643454194068909,0.100659370422363,0.973310798429558
4.647425177,1.00253200531006,-0.0524195432662964,0.105901822447777,1.00947185507324
4.652425177,1.04558753967285,-0.068818211555481,0.101092487573624,1.05271503285773
4.657425177,1.04627513885498,-0.0584806203842163,0.10178641974926,1.05284002792063
4.662425177,1.00900363922119,-0.0542396903038025,0.0870261788368225,1.01420108645613
4.667425177,0.920949935913086,-0.04836505651474,0.0844473838806152,0.92607738542428
4.672425177,0.846558570861816,-0.0265503525733948,0.0941614657640457,0.852192887060322
4.677425177,0.758066177368164,-0.0208287239074707,0.0604725480079651,0.760759550759483
4.682425177,0.662631034851074,-0.0114791393280029,0.0647085011005402,0.665882008393526
4.687425177,0.539665222167969,0.00360161066055298,0.0602927654981613,0.543034751363455
4.692425177,0.401510238647461,0.0218148231506348,0.0620147585868835,0.406856471658525
4.697425177,0.27713680267334,0.0362616181373596,0.0480749160051346,0.283603437734528
4.702425177,0.198648452758789,0.0443563461303711,0.0356695353984833,0.206642224584042
4.707425177,0.122693061828613,0.0519334077835083,0.0253206193447113,0.135616370799723
4.712425177,0.0781831741333008,0.0636893510818481,0.0333765000104904,0.106221150962203
4.717425177,0.0554399490356445,0.0673332810401917,0.0300975441932678,0.0922671168465668
4.722425177,0.0241031646728516,0.070038378238678,0.0329928696155548,0.0810855500013395
4.727425177,-0.0226707458496094,0.0710800886154175,0.048016756772995,0.0887240139192888
4.732425177,-0.0550680160522461,0.0822259783744812,0.0474577844142914,0.10975353849915
4.737425177,-0.106988906860352,0.0862101912498474,0.0471514016389847,0.145265542862129
4.742425177,-0.129471778869629,0.0845154523849487,0.0666046291589737,0.168350764301511
4.747425177,-0.154580116271973,0.0879823565483093,0.0615395456552506,0.188210050448708
4.752425177,-0.225343704223633,0.0929936766624451,0.0649803727865219,0.252289630741937
4.757425177,-0.312827110290527,0.103940486907959,0.0642798244953156,0.335851636274909
4.762425177,-0.425057411193848,0.117616593837738,0.0695299059152603,0.446477181693972
4.767425177,-0.548954010009766,0.133742988109589,0.0739981234073639,0.569836304777166
4.772425177,-0.644785881042481,0.141498744487762,0.0597213208675385,0.662825288631555
4.777425177,-0.749114036560059,0.137843787670136,0.0547063052654266,0.763652754467859
4.782425177,-0.850586891174316,0.156883418560028,0.05985327064991,0.867002237865717
4.787425177,-0.924818992614746,0.16320663690567,0.0436227321624756,0.940122076217941
4.792425177,-0.985703468322754,0.147684633731842,0.0414670407772064,0.997567839284544
4.797425177,-0.997250556945801,0.163128674030304,0.0213349163532257,1.01072984336834
4.802425177,-1.00999641418457,0.168541431427002,0.0208383947610855,1.02417440383431
4.807425177,-0.988224029541016,0.158731341362,0.00343665480613709,1.00089668891905
4.812425177,-0.956725120544434,0.146017193794251,0.00152228772640228,0.96780488453212
4.817425177,-0.928436279296875,0.130863547325134,0.0316259860992432,0.938146787944132
4.822425177,-0.893698692321777,0.14435225725174,0.0283782929182053,0.905726368358722
4.827425177,-0.848871231079102,0.150254964828491,0.0201893225312233,0.862303038469441
4.832425177,-0.813629150390625,0.130840361118317,0.0180190727114677,0.824279249674722
4.837425177,-0.78099250793457,0.134409785270691,0.00333180278539658,0.792481159862015
4.842425177,-0.735124588012695,0.130788624286652,-0.0136543437838554,0.746793321641134
4.847425177,-0.686158180236816,0.111722648143768,-0.0207370966672897,0.695503433199538
4.852425177,-0.640918731689453,0.105174720287323,-0.0185931921005249,0.649757069380873
4.857425177,-0.614790916442871,0.106305658817291,-0.00221739709377289,0.623918008144592
4.862425177,-0.583756446838379,0.103667020797729,0.00614593923091888,0.592921759590147
4.867425177,-0.574565887451172,0.0974230766296387,0.0171676203608513,0.583019675543966
4.872425177,-0.551506042480469,0.101704239845276,0.0227509364485741,0.561266667818659
4.877425177,-0.551535606384277,0.118860960006714,0.0398693680763245,0.56560500301376
4.882425177,-0.563248634338379,0.105965137481689,0.0240319073200226,0.573633303613903
4.887425177,-0.557925224304199,0.0993098616600037,0.0189462304115295,0.567011432146325
4.892425177,-0.563037872314453,0.109402298927307,0.0458169132471085,0.575395253899838
4.897425177,-0.587007522583008,0.100321173667908,0.0497510582208633,0.597592952810893
4.902425177,-0.592281341552734,0.107155382633209,0.0598152130842209,0.604861408336726
4.907425177,-0.584787368774414,0.107350289821625,0.0606982409954071,0.597649251537075
4.912425177,-0.549015998840332,0.115440607070923,0.0575185865163803,0.563962311274781
4.917425177,-0.497946739196777,0.104433357715607,0.0465971678495407,0.51090955885759
4.922425177,-0.416496276855469,0.0938646793365479,0.0539658069610596,0.430339441583477
4.927425177,-0.330202102661133,0.0863842368125916,0.0525767207145691,0.345340377790702
4.932425177,-0.217620849609375,0.0782754421234131,0.0423882752656937,0.235122616743524
4.937425177,-0.116043090820313,0.0770771503448486,0.0630081593990326,0.152895108434729
4.942425177,-0.0329036712646484,0.0690627098083496,0.0396821200847626,0.0861799287722256
4.947425177,0.0309791564941406,0.0694068074226379,0.0428398698568344,0.0872483094566428
4.952425177,0.0816183090209961,0.0585876107215881,0.0318021178245544,0.105382309690185
4.957425177,0.124880790710449,0.0568761825561523,0.00900130718946457,0.137517764531521
4.962425177,0.156801223754883,0.0547974109649658,0.00223223119974136,0.166115510641304
4.967425177,0.15149974822998,0.0479739308357239,-0.000046268105506897,0.158914045616855
4.972425177,0.150915145874023,0.0588939785957336,-0.0287262573838234,0.164526836207028
4.977425177,0.121603012084961,0.0612232089042664,-0.00786695629358292,0.136372515038756
4.982425177,0.120281219482422,0.0660625696182251,-0.0316461473703384,0.140830797441918
4.987425177,0.139049530029297,0.0459946393966675,-0.0407262593507767,0.152016140114478
4.992425177,0.183074951171875,0.0544297695159912,-0.0505476146936417,0.197570490983257
4.997425177,0.283401489257813,0.0466151833534241,-0.0260079875588417,0.288384803430209
5.002425177,0.415578842163086,0.0224615931510925,-0.0449506118893623,0.418605846506859
5.007425177,0.563039779663086,-0.0113117694854736,-0.036967396736145,0.564365429516547
5.012425177,0.730266571044922,-0.0184696912765503,-0.0165883973240852,0.730688421426904
5.017425177,0.887357711791992,-0.0426414012908936,0.00232280790805817,0.888384710143837
5.022425177,1.02683734893799,-0.0619071125984192,0.0190807431936264,1.02887876182041
5.027425177,1.11186981201172,-0.0667213797569275,0.048297330737114,1.11491652312448
5.032425177,1.1845703125,-0.0772813558578491,0.0500440746545792,1.18814293863475
5.037425177,1.19919776916504,-0.0858617424964905,0.0625883340835571,1.20389568815504
5.042425177,1.18483066558838,-0.0926533341407776,0.0697450488805771,1.19049263680602
5.047425177,1.12279224395752,-0.0880301594734192,0.0760191828012466,1.12880053517964
5.052425177,1.02218151092529,-0.0664041042327881,0.0975399017333984,1.02896966853578
5.057425177,0.919155120849609,-0.0588634014129639,0.0718708634376526,0.923837895532132
5.062425177,0.829174995422363,-0.059030294418335,0.0531946420669556,0.832973840307979
5.067425177,0.787426948547363,-0.0536344051361084,0.0459609776735306,0.790588553029718
5.072425177,0.759468078613281,-0.0540283918380737,0.0263834744691849,0.761844418029183
5.077425177,0.755340576171875,-0.0483732223510742,0.00528551638126373,0.75690639535923
5.082425177,0.780379295349121,-0.0489249229431152,0.0341647118330002,0.782657473119124
5.087425177,0.792855262756348,-0.061965823173523,0.0126411318778992,0.795373515486381
5.092425177,0.834745407104492,-0.0630138516426086,-0.00843057036399841,0.837162896154353
5.097425177,0.86289119720459,-0.0640060901641846,-0.0313321575522423,0.865828910286642
5.102425177,0.879536628723145,-0.0528101921081543,-0.0453595966100693,0.882287419529942
5.107425177,0.881396293640137,-0.0426389575004578,-0.0584190338850021,0.884358688914941
5.112425177,0.838724136352539,-0.0490325093269348,-0.0821834057569504,0.844166142446509
5.117425177,0.769909858703613,-0.0352076292037964,-0.054452508687973,0.772635647239748
5.122425177,0.65544319152832,-0.0191476941108704,-0.0823841243982315,0.660877867282191
5.127425177,0.540430068969727,-0.0112403035163879,-0.073996901512146,0.545588256199822
5.132425177,0.419892311096191,-0.0023912787437439,-0.0743486136198044,0.426430518934701
5.137425177,0.291272163391113,0.015680193901062,-0.0968647301197052,0.307356661857975
5.142425177,0.167864799499512,0.0343826413154602,-0.0925052165985107,0.194725375934356
5.147425177,0.0515031814575195,0.0298703908920288,-0.0966097190976143,0.113482402937234
5.152425177,-0.0309000015258789,0.0427622199058533,-0.0795079469680786,0.0954197630297554
5.157425177,-0.10222053527832,0.0479096174240112,-0.0630699247121811,0.129314286440059
5.162425177,-0.145469665527344,0.0568661689758301,-0.0608065873384476,0.167608549383297
5.167425177,-0.164448738098145,0.0479673147201538,-0.0610684603452683,0.181861506626543
5.172425177,-0.170528411865234,0.0455837249755859,-0.0454352796077728,0.182269525343556
5.177425177,-0.147830963134766,0.041904628276825,-0.0397617220878601,0.158716684931873
5.182425177,-0.11720085144043,0.0254045724868774,-0.0463661551475525,0.128573917357952
5.187425177,-0.0764169692993164,0.0259652137756348,-0.042622983455658,0.0912713769040896
5.192425177,-0.0370731353759766,0.0288284420967102,-0.0372819900512695,0.0599620148303225
5.197425177,-0.0125751495361328,0.0132461786270142,-0.0257984101772308,0.0316093910372774
5.202425177,-0.021662712097168,0.00701195001602173,-0.034355029463768,0.0412153926086886
5.207425177,-0.0488348007202148,0.0135141015052795,-0.0340558886528015,0.0610513902610752
5.212425177,-0.0777254104614258,0.0149715542793274,-0.0467637181282043,0.091936022331348
5.217425177,-0.104127883911133,0.0138317942619324,-0.0683301240205765,0.125311374539513
5.222425177,-0.123133659362793,0.00888735055923462,-0.0758604183793068,0.144898882482642
5.227425177,-0.148345947265625,0.00739520788192749,-0.0618670731782913,0.160899794634426
5.232425177,-0.18886661529541,0.00747036933898926,-0.0672500804066658,0.200621479672313
5.237425177,-0.22068977355957,0.0209737420082092,-0.0648129284381867,0.230964477139526
5.242425177,-0.197710037231445,0.0093611478805542,-0.0691524744033814,0.209663908739228
5.247425177,-0.146211624145508,-0.000547528266906738,-0.0747536048293114,0.164214007494632
5.252425177,-0.0797567367553711,-0.00877726078033447,-0.0810910612344742,0.114078646454123
5.257425177,-0.0363616943359375,-0.02547687292099,-0.0522640384733677,0.0685767714780893
5.262425177,0.0290975570678711,-0.0139599442481995,-0.0588688403367996,0.0671348511082765
5.267425177,0.0814275741577148,-0.0230394005775452,-0.0280942544341087,0.0891658619898399
5.272425177,0.117005348205566,-0.0426868796348572,-0.009311243891716,0.124896438958353
5.277425177,0.157873153686523,-0.041431188583374,0.0069882795214653,0.163368638645947
5.282425177,0.160261154174805,-0.0472887754440308,0.0179928541183472,0.168058348854678
5.287425177,0.128435134887695,-0.0323305726051331,0.01299749314785,0.133078114754924
5.292425177,0.0508060455322266,-0.0421108603477478,0.0690332353115082,0.0954995622996475
5.297425177,-0.008087158203125,-0.0334417819976807,0.0727226585149765,0.0804508543924094
5.302425177,-0.07232666015625,-0.0309848785400391,0.0740290135145187,0.1080347319589
5.307425177,-0.138748168945313,-0.0189774632453918,0.0941527932882309,0.1687481762298
5.312425177,-0.232399940490723,-0.00947260856628418,0.108636438846588,0.256712560071396
5.317425177,-0.325253486633301,-0.00097125768661499,0.109580591320992,0.343218122923121
5.322425177,-0.430960655212402,0.000928580760955811,0.137676432728767,0.452418775839655
5.327425177,-0.501769065856934,0.0208683013916016,0.128332942724228,0.518340646334214
5.332425177,-0.570578575134277,0.0267983078956604,0.121152579784393,0.58391438353302
5.337425177,-0.598017692565918,0.0311594009399414,0.118554890155792,0.610451743275955
5.342425177,-0.60087776184082,0.034850001335144,0.120783030986786,0.613886917796957
5.347425177,-0.605653762817383,0.025185227394104,0.111911952495575,0.616421171931269
5.352425177,-0.620209693908691,0.029655396938324,0.0866267383098602,0.626931973005116
5.357425177,-0.604915618896484,0.0339662432670593,0.0894433408975601,0.612435076475467
5.362425177,-0.592342376708984,0.0216066837310791,0.0829611569643021,0.598513904259508
5.367425177,-0.570808410644531,0.0236595273017883,0.0653203725814819,0.575020665688516
5.372425177,-0.547135353088379,0.0280846357345581,0.051670640707016,0.550286921954867
5.377425177,-0.534294128417969,0.0113741755485535,0.0348250567913055,0.535548664559855
5.382425177,-0.519699096679688,0.0171856284141541,0.0371765941381455,0.521310460345258
5.387425177,-0.519805908203125,0.0150819420814514,0.034320279955864,0.521155954389924
5.392425177,-0.52968692779541,0.00474590063095093,0.0317656546831131,0.530659798616388
5.397425177,-0.508529663085938,0.0119402408599854,0.0276546627283096,0.509421012484476
5.402425177,-0.485172271728516,0.0079079270362854,0.00390532612800598,0.485252429294677
5.407425177,-0.456791877746582,0.0149750709533691,0.00575840473175049,0.457073551576069
5.412425177,-0.442087173461914,-0.00139600038528442,0.00544622540473938,0.442122923096936
5.417425177,-0.442668914794922,0.0118812322616577,0.016082763671875,0.443120285129325
5.422425177,-0.426587104797363,0.00289404392242432,0.0254334211349487,0.42735441074154
5.427425177,-0.383964538574219,-0.00663954019546509,0.02222640812397,0.384664611830375
5.432425177,-0.317950248718262,-0.0150634050369263,0.00175422430038452,0.318311709074937
5.437425177,-0.256579399108887,-0.0430449843406677,0.00735251605510712,0.260268934404985
5.442425177,-0.198389053344727,-0.0173560976982117,0.0175719261169434,0.199920542220618
5.447425177,-0.13298511505127,-0.0525844693183899,0.0241242647171021,0.145024644067265
5.452425177,-0.0511093139648438,-0.0461499094963074,0.0307662636041641,0.0754224044739708
5.457425177,0.052520751953125,-0.0566951632499695,0.0131606757640839,0.078396264631867
5.462425177,0.166765213012695,-0.0626519918441773,-0.0155939906835556,0.178826957975165
5.467425177,0.263426780700684,-0.0793336033821106,0.0179125219583511,0.275696115059361
5.472425177,0.303552627563477,-0.0778037905693054,-0.00736416876316071,0.313451524975099
5.477425177,0.321714401245117,-0.0805517435073853,-0.000319674611091614,0.3316456566012
5.482425177,0.356497764587402,-0.0869558453559876,0.00586038827896118,0.366996347867618
5.487425177,0.388312339782715,-0.0897388458251953,-0.0103592127561569,0.398681385277131
5.492425177,0.431793212890625,-0.0924723148345947,-0.00534921884536743,0.441616487295858
5.497425177,0.431700706481934,-0.0731467604637146,0.000539705157279968,0.437854130761597
5.502425177,0.428342819213867,-0.0976574420928955,-0.022208109498024,0.439895154435335
5.507425177,0.422114372253418,-0.0952728986740112,-0.0175280272960663,0.43308740483364
5.512425177,0.405467987060547,-0.0793763995170593,-0.0243077427148819,0.413878928778836
5.517425177,0.414467811584473,-0.0915817618370056,-0.0246552079916,0.42518074418052
5.522425177,0.444923400878906,-0.0814127922058106,-0.0409554690122604,0.45416101310704
5.527425177,0.494019508361816,-0.0802624225616455,-0.0348387807607651,0.501708153972418
5.532425177,0.51286506652832,-0.0885369777679443,-0.0259968489408493,0.52109999909061
5.537425177,0.541305541992188,-0.103646218776703,-0.0237018316984177,0.55164844356168
5.542425177,0.583722114562988,-0.104101657867432,-0.0327121317386627,0.593833937867753
5.547425177,0.635479927062988,-0.104590594768524,-0.0214187949895859,0.644385517367376
5.552425177,0.691403388977051,-0.117766380310059,-0.0181085169315338,0.701594957939226
5.557425177,0.747026443481445,-0.127245187759399,-0.00610078871250153,0.757810705051978
5.562425177,0.798076629638672,-0.139413237571716,-0.0165664851665497,0.810331293988097
5.567425177,0.807956695556641,-0.138859629631042,-0.0140162408351898,0.819922236339049
5.572425177,0.813704490661621,-0.13604348897934,-0.0112724304199219,0.825075691499957
5.577425177,0.79808521270752,-0.139484882354736,-0.00706903636455536,0.810213558528272
5.582425177,0.776200294494629,-0.130699396133423,-0.037941038608551,0.788041085054508
5.587425177,0.709881782531738,-0.132837653160095,-0.027197927236557,0.722715514233287
5.592425177,0.670906066894531,-0.127505123615265,-0.0133663415908813,0.683045508170252
5.597425177,0.604138374328613,-0.12710428237915,-0.0187323093414307,0.617648422121195
5.602425177,0.532168388366699,-0.118965268135071,-0.0219108909368515,0.545743543929661
5.607425177,0.456120491027832,-0.119838535785675,-0.0176885724067688,0.471932264830997
5.612425177,0.370185852050781,-0.10123473405838,0.00350205600261688,0.383794607615427
5.617425177,0.277915954589844,-0.0942628383636475,-0.0185146629810333,0.294050256346184
5.622425177,0.180172920227051,-0.0902820229530335,-0.019196018576622,0.202439156244115
5.627425177,0.108699798583984,-0.0828172564506531,-0.0220923572778702,0.138428380140436
5.632425177,0.0521965026855469,-0.0721101760864258,-0.0260826945304871,0.0927613030405909
5.637425177,-0.000241279602050781,-0.0617268085479736,-0.0202780812978745,0.06497274575149
5.642425177,-0.0677976608276367,-0.0585768818855286,-0.0458105355501175,0.100629911420606
5.647425177,-0.153509140014648,-0.0545139908790588,0.00723659992218018,0.163061950338001
5.652425177,-0.170904159545898,-0.0591561198234558,0.000168517231941223,0.180852720910454
5.657425177,-0.211898803710938,-0.0534212589263916,-0.0023789256811142,0.218541971270517
5.662425177,-0.257699966430664,-0.0518347024917603,-0.00622372329235077,0.262935056263699
5.667425177,-0.303837776184082,-0.0418146848678589,0.00442743301391602,0.306733539526051
5.672425177,-0.350357055664063,-0.0387908220291138,-0.0136592090129852,0.352762481449127
5.677425177,-0.403428077697754,-0.0171117186546326,-0.0125820189714432,0.403986796803581
5.682425177,-0.468132972717285,-0.0204764604568481,-0.0000809133052825928,0.468580592987937
5.687425177,-0.546811103820801,-0.0156625509262085,-0.0125441551208496,0.547179179602929
5.692425177,-0.611702919006348,-0.0146428346633911,-0.0111349374055862,0.611979460896272
5.697425177,-0.65457820892334,-0.0034673810005188,-0.0276533961296082,0.655171248335724
5.702426612,-0.68821907043457,0.0113770961761475,-0.0219240188598633,0.688662173950474
5.707426612,-0.747236251831055,0.00136786699295044,-0.0440385937690735,0.748534090641028
5.712426612,-0.792342185974121,0.0042569637298584,-0.0268391966819763,0.792808049841183
5.717426612,-0.808891296386719,0.00794738531112671,-0.0343748033046722,0.809660371640915
5.722426612,-0.796112060546875,0.0154321789741516,-0.0449965000152588,0.797531974349433
5.727426612,-0.743517875671387,0.00124794244766235,-0.0582699328660965,0.745798748912509
5.732426612,-0.695033073425293,-0.00685191154479981,-0.0673137158155441,0.698318736812727
5.737426612,-0.664385795593262,-0.0129207372665405,-0.0817658454179764,0.669523027471437
5.742426612,-0.643948554992676,-0.0143187642097473,-0.0678627267479897,0.647672848101047
5.747426612,-0.583133697509766,-0.00831323862075806,-0.0595483630895615,0.586225235429543
5.752426612,-0.516387939453125,-0.0247862339019775,-0.0645723640918732,0.520999473711924
5.757426612,-0.450138092041016,-0.0331753492355347,-0.082848571240902,0.45889954397437
5.762426612,-0.379764556884766,-0.0430787205696106,-0.0713857486844063,0.38880949055679
5.767426612,-0.312926292419434,-0.0380337238311768,-0.068922333419323,0.32267586937948
5.772426612,-0.242498397827148,-0.0477215647697449,-0.0544888377189636,0.253084677783485
5.777426612,-0.186150550842285,-0.0609760284423828,-0.0606642812490463,0.205061597192053
5.782426612,-0.13431453704834,-0.0625838041305542,-0.0694459080696106,0.163645536295905
5.787425154,-0.0698099136352539,-0.0569635033607483,-0.0672841817140579,0.112451882446769
5.792425154,-0.00595188140869141,-0.069885790348053,-0.0657259523868561,0.0961215345384915
5.797425154,0.0837135314941406,-0.0797385573387146,-0.042853057384491,0.123298732389585
5.802425154,0.151360511779785,-0.0868362188339233,-0.0469596236944199,0.180708991710797
5.807425154,0.217071533203125,-0.0901215076446533,-0.0579409450292587,0.242072488685072
5.812425154,0.272862434387207,-0.0879334807395935,-0.0635022446513176,0.293630278088703
5.817425154,0.334358215332031,-0.108999788761139,-0.0805852115154266,0.360791278199709
5.822425154,0.372357368469238,-0.106491684913635,-0.0750516951084137,0.394491122520808
5.827425154,0.393404960632324,-0.0944188833236694,-0.0862593352794647,0.413670232795477
5.832425154,0.397208213806152,-0.0967848300933838,-0.100567378103733,0.421017180160072
5.837425154,0.376010894775391,-0.0943667888641357,-0.124701097607613,0.407234143429627
5.842425154,0.383857727050781,-0.0877140760421753,-0.136675894260407,0.416798289133253
5.847425154,0.391687393188477,-0.106619119644165,-0.128396451473236,0.425760847668501
5.852425154,0.364892959594727,-0.0985677838325501,-0.14524282515049,0.404917223922563
5.857425154,0.349617958068848,-0.0944787859916687,-0.145899578928947,0.39044288281173
5.862425154,0.334056854248047,-0.0929057002067566,-0.162126362323761,0.382766780639783
5.867425154,0.300937652587891,-0.0911167860031128,-0.159700468182564,0.352661280798413
5.872425154,0.261012077331543,-0.0820682644844055,-0.149579480290413,0.311827717614005
5.877425154,0.235748291015625,-0.0802165865898132,-0.169303834438324,0.301124136921018
5.882425154,0.23493480682373,-0.0740569829940796,-0.157674863934517,0.292472499398247
5.887425154,0.258618354797363,-0.0823611617088318,-0.161739587783813,0.315953333029739
5.892425154,0.26114559173584,-0.075358510017395,-0.174592033028603,0.323045357670041
5.897425154,0.268560409545898,-0.0749013423919678,-0.175847440958023,0.329631957126528
5.902425154,0.292658805847168,-0.0663977861404419,-0.17327418923378,0.346528191203639
5.907425154,0.344172477722168,-0.066289484500885,-0.16480128467083,0.387309248025354
5.912425154,0.32121753692627,-0.0879111886024475,-0.180661082267761,0.378876641872567
5.917425154,0.314754486083984,-0.0838291645050049,-0.163394287228584,0.364411043233513
5.922425154,0.285367965698242,-0.0759733319282532,-0.167958229780197,0.339730466637791
5.927425154,0.242509841918945,-0.0604706406593323,-0.177264302968979,0.306415330746325
5.932425154,0.152807235717773,-0.0598273873329163,-0.179858267307282,0.243471484740139
5.937425154,0.0697269439697266,-0.0659356713294983,-0.168030053377152,0.193503122215011
5.942425154,-0.0196475982666016,-0.0468045473098755,-0.1682248711586,0.175716536054111
5.947425154,-0.107165336608887,-0.0334217548370361,-0.1595399081707,0.195075383803284
5.952425154,-0.180803298950195,-0.0285509824752808,-0.154884830117226,0.239779694953554
5.957425154,-0.234512329101563,-0.0206380486488342,-0.168849721550941,0.289710527976637
5.962425154,-0.278899192810059,-0.0203874111175537,-0.174140855669975,0.329432001930064
5.967425154,-0.31180477142334,-0.0213761329650879,-0.189630568027496,0.365566556010439
5.972425154,-0.325868606567383,-0.00406569242477417,-0.160079807043076,0.363087349303179
5.977425154,-0.273900985717773,-0.0133832693099976,-0.17068612575531,0.323008692452617
5.982425154,-0.235907554626465,-0.0202674865722656,-0.157117232680321,0.284163632695877
5.987425154,-0.179111480712891,-0.0235818028450012,-0.16696098446846,0.245993890743779
5.992425154,-0.170595169067383,-0.0179018974304199,-0.159455552697182,0.234199194974496
5.997425154,-0.128541946411133,-0.020017683506012,-0.156696081161499,0.203660014464009
6.002425154,-0.113198280334473,-0.0253902673721313,-0.134425923228264,0.177563636997222
6.007425154,-0.0642423629760742,-0.0365791916847229,-0.129383504390717,0.149014125751487
6.012425154,-0.0468330383300781,-0.0382617115974426,-0.128024443984032,0.141589372168298
6.017425154,-0.0525093078613281,-0.0296436548233032,-0.117528453469276,0.132094326366573
6.022425154,-0.0659255981445313,-0.0340868234634399,-0.0922403335571289,0.118390773117133
6.027425154,-0.120186805725098,-0.0344188213348389,-0.0872681885957718,0.152463963851361
6.032425154,-0.16596508026123,-0.0338919758796692,-0.0756275579333305,0.185506337935134
6.037425154,-0.171730995178223,-0.036301851272583,-0.0653471350669861,0.187295507613457
6.042425154,-0.181243896484375,-0.032386839389801,-0.044865757226944,0.189502489561606
6.047425154,-0.200815200805664,-0.0289015769958496,-0.0413834601640701,0.207061915384306
6.052425154,-0.23093318939209,-0.0274889469146729,-0.0336002260446548,0.234978201873136
6.057425154,-0.238443374633789,-0.0307275056838989,0.00755462050437927,0.240533770608762
6.062425154,-0.259071350097656,-0.0310859680175781,-0.00231973826885223,0.260939998916702
6.067425154,-0.232684135437012,-0.0365331768989563,0.0214278399944305,0.236507361883784
6.072425154,-0.205506324768066,-0.031785786151886,0.0281864553689957,0.209851523671475
6.077425154,-0.157111167907715,-0.0242334604263306,0.0279494822025299,0.161407413835146
6.082425154,-0.111766815185547,-0.0297466516494751,0.0308268070220947,0.119695347830452
6.087425154,-0.0838298797607422,-0.0399587154388428,0.0270587056875229,0.0967280788277473
6.092425154,-0.0773324966430664,-0.056255042552948,0.0541723966598511,0.109907203629044
6.097425154,-0.0587692260742188,-0.0513964891433716,0.0437895506620407,0.0895150589387661
6.102425154,-0.0361833572387695,-0.034422755241394,0.0398381352424622,0.0638845712130405
6.107425154,-0.0309543609619141,-0.0377074480056763,0.0455948412418366,0.06677509749547
6.112425154,-0.043147087097168,-0.042313277721405,0.0325523018836975,0.06864209316758
6.117425154,-0.0852756500244141,-0.0339732170104981,0.0266500562429428,0.0955842113472762
6.122425154,-0.136764526367188,-0.0254606604576111,0.0102758854627609,0.13949327842381
6.127425154,-0.201215744018555,-0.014494776725769,0.0291177034378052,0.203827659670523
6.132425154,-0.249921798706055,-0.00790983438491821,0.0268903225660324,0.251488688406003
6.137425154,-0.277776718139648,-0.000774085521697998,0.0163699984550476,0.278259736933403
6.142425154,-0.30119800567627,0.00641977787017822,0.0119461268186569,0.301503170990343
6.147425154,-0.350746154785156,0.00837403535842896,0.0279449373483658,0.351957254632095
6.152425154,-0.375625610351563,-0.00455498695373535,0.0474576503038406,0.378639110011755
6.157425154,-0.355256080627441,0.00435048341751099,0.0533220022916794,0.359261806287742
6.162425154,-0.305790901184082,0.00058966875076294,0.0631861090660095,0.312251352815501
6.167425154,-0.269554138183594,-0.00606530904769898,0.0733374208211899,0.279418322016378
6.172425154,-0.183077812194824,-0.00456678867340088,0.0722281932830811,0.196863538477213
6.177425154,-0.0950498580932617,-0.00730657577514648,0.0649261027574539,0.115339760674186
6.182425154,0.0272655487060547,-0.01677405834198,0.0638042539358139,0.0713846061823431
6.187425154,0.110228538513184,-0.0294210910797119,0.0766782611608505,0.137460856383644
6.192425154,0.213431358337402,-0.0372233390808106,0.07709601521492,0.229961556039467
6.197425154,0.277515411376953,-0.0438522696495056,0.0785701423883438,0.291738054391362
6.202425154,0.326239585876465,-0.0580259561538696,0.0920543074607849,0.343908817133994
6.207425154,0.301118850708008,-0.0375994443893433,0.0539466887712479,0.308215064037241
6.212425154,0.308815956115723,-0.040269672870636,0.0405950397253037,0.314065118335473
6.217425154,0.318868637084961,-0.0494085550308228,0.0131802260875702,0.322942922799639
6.222425154,0.274746894836426,-0.0337460041046143,0.00509138405323029,0.276858395586741
6.227425154,0.243858337402344,-0.0300285816192627,0.00958777964115143,0.245887230154694
6.232425154,0.250227928161621,-0.037563681602478,0.00234442949295044,0.253042570642248
6.237425154,0.319231033325195,-0.0275639295578003,-0.00691471993923187,0.320493426145338
6.242425154,0.301932334899902,-0.0379393696784973,-0.0106847435235977,0.30449416147748
6.247425154,0.22822093963623,-0.0329862833023071,-0.0115889310836792,0.230883510667623
6.252425154,0.162496566772461,-0.0250834822654724,-0.00370535254478455,0.164462898347561
6.257425154,0.131455421447754,-0.00913363695144653,0.00199870765209198,0.131787503141405
6.262425154,0.167235374450684,-0.0225991606712341,-0.0190685093402863,0.169829327794599
6.267425154,0.218338012695313,-0.0324061512947083,0.00361083447933197,0.220759336280736
6.272425154,0.234720230102539,-0.019015908241272,0.00948809087276459,0.235680323858483
6.277425154,0.250734329223633,-0.0254775285720825,0.0444487035274506,0.255915016282042
6.282425154,0.25886058807373,-0.0264815092086792,0.0634858459234238,0.267844221555104
6.287425154,0.306922912597656,-0.0317487120628357,0.0599523484706879,0.314330938792586
6.292425154,0.346023559570313,-0.0320072770118713,0.0741746872663498,0.355328937451603
6.297425154,0.398407936096191,-0.0319158434867859,0.0432056486606598,0.402012727020039
6.302425154,0.446695327758789,-0.0341132879257202,0.0520942658185959,0.451014683558988
6.307425154,0.440193176269531,-0.0456889271736145,0.0581710338592529,0.446364626377123
6.312425154,0.371663093566895,-0.0458799600601196,0.0757477432489395,0.382068248434936
6.317425154,0.272700309753418,-0.035727322101593,0.109008491039276,0.295845824041545
6.322425154,0.195149421691895,-0.0123512744903564,0.0938088446855545,0.216877730782705
6.327425154,0.119524955749512,-0.018657922744751,0.0690671801567078,0.139300425350646
6.332425154,0.0879716873168945,-0.00875306129455566,0.0623986721038818,0.108209186910056
6.337425154,0.0482473373413086,-0.00291973352432251,0.052913174033165,0.071666829081822
6.342425154,0.00769805908203125,0.00227296352386475,0.0510475188493729,0.0516747100377771
6.347425154,-0.0291433334350586,-0.000460684299468994,0.067885622382164,0.0738783042573701
6.352425154,-0.0637035369873047,0.00524765253067017,0.0953812152147293,0.114818355229528
6.357425154,-0.0700197219848633,-0.000151276588439941,0.0948051810264587,0.11785926650418
6.362425154,-0.106783866882324,-0.00115573406219482,0.102177411317825,0.147798353614567
6.367425154,-0.110766410827637,0.00198954343795776,0.097295492887497,0.147443443350151
6.372425154,-0.107632637023926,0.00404626131057739,0.0809949636459351,0.134764019379521
6.377425154,-0.0614728927612305,0.000295341014862061,0.0820054709911346,0.10248854103375
6.382425154,-0.0758905410766602,-0.00241744518280029,0.0900463759899139,0.117786111639009
6.387425154,-0.0760059356689453,-0.00962668657302856,0.112701877951622,0.136276515383647
6.392425154,-0.0922355651855469,-0.00686419010162354,0.112749487161636,0.145831969903929
6.397425154,-0.0953254699707031,-0.00286632776260376,0.111401259899139,0.146647201702227
6.402425154,-0.108920097351074,0.00340753793716431,0.099307969212532,0.147435652645071
6.407425154,-0.178582191467285,0.0101960897445679,0.116662666201591,0.21355499769521
6.412425154,-0.235195159912109,0.0121322274208069,0.159670993685722,0.284532564766951
6.417425154,-0.300914764404297,0.0180286765098572,0.210796222090721,0.367844771419836
6.422425154,-0.353837013244629,0.0269208550453186,0.282704681158066,0.453703979624308
6.427425154,-0.400189399719238,0.0317873954772949,0.348816961050034,0.531822589286178
6.432425154,-0.414030075073242,0.0480366349220276,0.430028349161148,0.598876283085287
6.437425154,-0.439536094665527,0.0518706440925598,0.463984906673431,0.641221128670253
6.442425154,-0.433145523071289,0.0485035181045532,0.493705242872238,0.658568525109388
6.447425154,-0.385445594787598,0.0421268939971924,0.482930183410645,0.619325878506667
6.452425154,-0.282272338867188,0.0299180150032043,0.467475771903992,0.546906169492096
6.457425154,-0.183173179626465,0.0206704139709473,0.474786162376404,0.509314813972962
6.462425154,-0.127181053161621,0.0228376984596252,0.480327546596527,0.497404395611529
6.467425154,-0.0922956466674805,0.0286816358566284,0.465142846107483,0.475077877736009
6.472425154,-0.0661296844482422,0.0150815844535828,0.452402770519257,0.457459130555237
6.477425154,-0.0314254760742188,0.0208737254142761,0.401078701019287,0.402849099999591
6.482425154,-0.0278253555297852,0.0155112743377686,0.352048248052597,0.353486660284152
6.487425154,-0.0466604232788086,0.0259745121002197,0.294010579586029,0.298821169410594
6.492425154,-0.0989875793457031,0.0288612246513367,0.261108428239822,0.280729625175127
6.497425154,-0.132402420043945,0.0339253544807434,0.223880052566528,0.262304419420125
6.502425154,-0.238201141357422,0.0479551553726196,0.213206738233566,0.323259329175489
6.507425154,-0.328271865844727,0.04817795753479,0.175388306379318,0.375292674471549
6.512425154,-0.401524543762207,0.0488629937171936,0.145977154374123,0.430021954087953
6.517425154,-0.45994758605957,0.0707276463508606,0.12265619635582,0.481247051299887
6.522425154,-0.510403633117676,0.0647382736206055,0.102604016661644,0.524624148325449
6.527425154,-0.506196022033691,0.075939953327179,0.0710015594959259,0.516761560765621
6.532425154,-0.473957061767578,0.0779308676719666,0.0498287230730057,0.482898973056009
6.537425154,-0.436259269714355,0.0696664452552795,0.0390305668115616,0.443507552530779
6.542425154,-0.393035888671875,0.0558072328567505,0.0480753034353256,0.399878596355965
6.547425154,-0.33147144317627,0.0353592038154602,0.0494411289691925,0.336998540307774
6.552425154,-0.247280120849609,0.0481406450271606,0.0337293148040772,0.254170506841728
6.557425154,-0.12696361541748,0.0304338932037354,0.0408059656620026,0.136788553355253
6.562425154,-0.0287485122680664,0.0212898850440979,0.017475426197052,0.0398136494633019
6.567425154,0.0573759078979492,0.014893114566803,0.00739267468452454,0.0597365156968925
6.572425154,0.137986183166504,0.00220030546188355,-0.00862008333206177,0.138272679606773
6.577425154,0.184443473815918,-0.00617140531539917,-0.00923734903335571,0.184777731055488
6.582425154,0.185914993286133,0.00682997703552246,-0.00297002494335175,0.186064113581993
6.587425154,0.203751564025879,-0.00713253021240234,0.0181929916143417,0.204686486544916
6.592425154,0.309393882751465,-0.019755482673645,-0.00474371016025543,0.31006024667116
6.597425154,0.377016067504883,-0.022011935710907,-0.0277010351419449,0.378672665792664
6.602425154,0.442556381225586,-0.0313108563423157,-0.0539967715740204,0.446936429068824
6.607425154,0.468659400939941,-0.0328885316848755,-0.0464780479669571,0.472105389239088
6.612425154,0.446612358093262,-0.03403639793396,-0.0409053564071655,0.449771411906915
6.617425154,0.350595474243164,-0.00717842578887939,-0.0231099426746368,0.351429631373082
6.622425154,0.10428524017334,0.00891238451004028,-0.0176214650273323,0.106138390535072
6.627425154,-0.245952606201172,0.0436865091323853,-0.0236016139388084,0.250914789834795
6.632425154,-0.590818405151367,0.0834553241729736,-0.0347496345639229,0.597694500644558
6.637425154,-0.71153736114502,0.11408144235611,-0.0576203688979149,0.722924683979735
6.642425154,-0.586795806884766,0.0932909250259399,-0.0969415977597237,0.602021751306335
6.647425154,-0.246411323547363,0.0686240196228027,-0.123741872608662,0.284147580454686
6.652425154,-0.0330886840820313,0.045982837677002,-0.0805157124996185,0.0984482723791088
6.657425154,-0.00939559936523438,0.0440710186958313,0.0306453034281731,0.0544946474300467
6.662425154,-0.00903606414794922,0.052035391330719,0.127285599708557,0.137807678666299
6.667425154,0.130948066711426,0.0376231670379639,0.107606060802937,0.173614409525684
6.672425154,0.400003433227539,0.00264257192611694,0.0113862752914429,0.400174183381706
6.677425154,0.592458724975586,-0.007904052734375,-0.0282025411725044,0.593182263876721
6.682425154,0.709705352783203,-0.0178183317184448,-0.0261529535055161,0.710410555729165
6.687425154,0.67130184173584,-0.00315988063812256,0.0529114902019501,0.673391248353414
6.692425154,0.537562370300293,0.0155162811279297,0.144558280706406,0.556876246093961
6.697425154,0.340425491333008,0.0222669839859009,0.168785288929939,0.380622920334957
6.702425154,0.163958549499512,0.0445745587348938,0.118786364793777,0.207314972207303
6.707425154,-0.0471229553222656,0.0686329007148743,0.0336304306983948,0.0897889405650917
6.712425154,-0.235516548156738,0.0831418037414551,-0.028062466531992,0.251332660060142
6.717425154,-0.406509399414063,0.108661472797394,-0.00869254022836685,0.420871438491735
6.722425154,-0.539673805236816,0.136510729789734,0.0364148616790772,0.557861127483908
6.727425154,-0.609543800354004,0.132304549217224,0.0671643242239952,0.627342956238484
6.732425154,-0.574618339538574,0.141936302185059,0.0489693433046341,0.593910891124017
6.737425154,-0.419590950012207,0.11393415927887,0.00549925863742828,0.434819272604482
6.742425154,-0.185580253601074,0.0886799097061157,-0.0272460132837296,0.207476509879989
6.747425154,0.0788555145263672,0.0740677118301392,-0.0210443623363972,0.110213807180027
6.752425154,0.353840827941895,0.0379481911659241,-0.012250043451786,0.356080693517553
6.757425154,0.634549140930176,0.00865685939788818,0.00598128885030747,0.634636375640547
6.762425154,0.905017852783203,-0.00136876106262207,0.00464409589767456,0.905030803337584
6.767425154,1.16726684570313,-0.0564772486686707,-0.0000582784414291382,1.16863235112301
6.772425154,1.35124015808105,-0.0761398077011108,0.0117710456252098,1.35343481285313
6.777425154,1.43126678466797,-0.0845166444778442,-0.000722780823707581,1.43376015933618
6.782425154,1.43049335479736,-0.0894534587860107,0.0139923691749573,1.43335583363076
