Time (s),Linear Acceleration x (m/s^2),Linear Acceleration y (m/s^2),Linear Acceleration z (m/s^2),Absolute acceleration (m/s^2)
0.017739852,0,0,0,0
0.022739852,-0.0220184326171875,-0.00311553478240967,0.0165802240371704,0.0277384527510241
0.027739852,-0.0359230041503906,-0.00192457437515259,0.00127819180488586,0.0359972219484303
0.032739852,-0.038599967956543,-0.00267201662063599,0.0152587890625,0.0415924012617806
0.037739852,-0.0347652435302734,-0.0056995153427124,0.0109923183917999,0.0369044400646824
0.042739852,-0.0353260040283203,-0.00644826889038086,0.00450584292411804,0.0361912883543593
0.047739852,-0.024169921875,-0.0112887620925903,-0.0194348096847534,0.0330050465915334
0.052739852,0.00570487976074219,-0.00965619087219238,-0.0303990244865417,0.0324019808804663
0.057739852,0.0127296447753906,-0.0022735595703125,-0.0224415957927704,0.0259005434489989
0.062739852,0.0180730819702148,-0.0113844871520996,-0.00796979665756226,0.022798256476786
0.067739852,0.0401687622070313,-0.0164253711700439,-0.00047728419303894,0.0433998856625183
0.072739852,0.0587987899780273,-0.00729113817214966,-0.00017818808555603,0.0592493894459629
0.077739852,0.0803861618041992,-0.00830060243606567,-0.00491833686828613,0.0809631091791963
0.082739852,0.0964078903198242,-0.00360041856765747,-0.00804737210273743,0.0968101468211959
0.087739852,0.115242958068848,-0.0127617716789246,-0.0229294300079346,0.118192897254158
0.092739852,0.114853858947754,-0.00554370880126953,-0.0235884189605713,0.117382090335465
0.097739852,0.12275218963623,0.00176239013671875,-0.0219891965389252,0.124718606646765
0.102739852,0.138716697692871,-0.00761806964874268,-0.0242253243923187,0.141022067584834
0.107739852,0.124190330505371,-0.00697684288024902,-0.00901022553443909,0.124712063136613
0.112739852,0.143831253051758,-0.0160719752311707,-0.0309537351131439,0.147999565741677
0.117739852,0.132500648498535,-0.0153062343597412,-0.0307153165340424,0.136872690236563
0.122739852,0.11280345916748,-0.00146239995956421,-0.0231090784072876,0.115155497127255
0.127739852,0.0862512588500977,0.00862729549407959,-0.0237147808074951,0.089867128080941
0.132739852,0.073512077331543,0.00797861814498901,-0.00782495737075806,0.0743566662711319
0.137739852,0.0595550537109375,0.00885576009750366,-0.0173873007297516,0.0626701454927624
0.142739852,0.0471830368041992,0.00475353002548218,-0.0205695927143097,0.0516908420728678
0.147739852,0.0465097427368164,0.0162584185600281,-0.0116917788982391,0.0506378320756648
0.152739852,0.0339269638061523,0.0109266638755798,-0.0120300054550171,0.0376185045928412
0.157739852,0.0202178955078125,0.00476640462875366,0.00803351402282715,0.0222714898335246
0.162739852,0.0195798873901367,0.0113404393196106,0.0224894881248474,0.0319022668519003
0.167739852,0.00921821594238281,0.0170719027519226,0.00425520539283752,0.0198628331732091
0.172739852,0.0214061737060547,0.0201590061187744,0.00870534777641296,0.0306658259360297
0.177739852,0.016815185546875,0.00866425037384033,0.01932093501091,0.027039198013481
0.182739852,0.0349769592285156,-0.00236260890960693,0.0180201232433319,0.039416930872886
0.187739852,0.0471782684326172,-0.0070568323135376,0.0235820114612579,0.0532137121347531
0.192739852,0.0515546798706055,-0.0177001953125,0.0214763879776001,0.0585868344530208
0.197739852,0.0467958450317383,0.0119983553886414,0.0110063254833221,0.0495474605293897
0.202739852,0.0503044128417969,0.00112062692642212,0.00054594874382019,0.050319855088196
0.207739852,0.0521059036254883,-0.0130007863044739,0.00633659958839417,0.0540758553469745
0.212739852,0.0596303939819336,-0.0156691670417786,0.019720196723938,0.0647316988889879
0.217739852,0.0606985092163086,-0.00682491064071655,0.0123663246631622,0.0623202568352442
0.222739852,0.0554647445678711,0.00964415073394775,0.0206677317619324,0.0599708484977616
0.227739852,0.062617301940918,-0.00240933895111084,0.0171089768409729,0.0649572821559398
0.232739852,0.0573005676269531,-0.00364995002746582,0.0310796797275543,0.0652887714506972
0.237739852,0.0551824569702148,-0.00651472806930542,0.0296342074871063,0.0629740541213243
0.242739852,0.0397729873657227,0.0125288367271423,0.0604674518108368,0.0734518549951272
0.247739852,0.0246658325195313,0.0152990818023682,0.0715002119541168,0.0771669975271861
0.252739852,0.0233488082885742,0.00792056322097778,0.0623705387115479,0.0670670281837714
0.257739852,0.0185747146606445,0.0164076685905457,0.0838584005832672,0.0874440561827118
0.262739852,0.000736236572265625,0.0277694463729858,0.0960986614227295,0.100033179112697
0.267739852,-0.00973415374755859,0.0336238145828247,0.0989281386137009,0.104938511833611
0.272739852,-0.0128288269042969,0.0286818146705627,0.128330260515213,0.132120706387906
0.277739852,-0.0172967910766602,0.0389618277549744,0.155422002077103,0.161162035644915
0.282739852,-0.0384798049926758,0.045056164264679,0.169104531407356,0.179184530227979
0.287739852,-0.0321846008300781,0.0536811947822571,0.187336191534996,0.197515487652687
0.292739852,-0.0305881500244141,0.0352299213409424,0.200758829712868,0.206108927480799
0.297739852,-0.0262203216552734,0.0231956243515015,0.22427025437355,0.22698609925178
0.302739852,-0.0128297805786133,0.0107458233833313,0.23466919362545,0.235265183201213
0.307739852,0.011683464050293,-0.00775313377380371,0.244643598794937,0.245045107779909
0.312739852,0.0128250122070313,-0.01310133934021,0.229734808206558,0.230465199395314
0.317739852,0.0224237442016602,-0.0231079459190369,0.210575133562088,0.213022741375915
0.322739852,0.0376653671264648,-0.0292662382125855,0.225930333137512,0.230910606104428
0.327739852,0.0500717163085938,-0.0360488295555115,0.222409442067146,0.23080869742501
0.332739852,0.0659208297729492,-0.0461095571517944,0.243733942508698,0.256666869286867
0.337739852,0.0780487060546875,-0.0396372675895691,0.281464725732803,0.294762795024441
0.342739852,0.0879411697387695,-0.0297402739524841,0.293907463550568,0.308220262735142
0.347739852,0.087529182434082,-0.0331897139549255,0.329762190580368,0.342791506934392
0.352739852,0.0885686874389648,-0.0318584442138672,0.352736204862595,0.365078351978388
0.357739852,0.090418815612793,-0.0323032736778259,0.374895244836807,0.386995488744216
0.362739852,0.0780305862426758,-0.0266035199165344,0.359889149665833,0.369210942021659
0.367739852,0.0550899505615234,-0.0394692420959473,0.347471922636032,0.354019011841003
0.372739852,0.0397663116455078,-0.0239910483360291,0.339351892471314,0.342515162972402
0.377739852,0.0181808471679688,-0.0368112325668335,0.335306465625763,0.337810651012184
0.382739852,0.00126743316650391,-0.032914400100708,0.302583605051041,0.304371158565501
0.387739852,-0.0154142379760742,-0.0266359448432922,0.259779572486877,0.261596059931228
0.392739852,-0.0203695297241211,-0.0376895666122437,0.218361675739288,0.222524701110395
0.397739852,-0.0293550491333008,-0.026411235332489,0.175165057182312,0.179560768318386
0.402739852,-0.03216552734375,-0.0221114754676819,0.123784944415092,0.129793108293572
0.407739852,-0.0437202453613281,-0.0397500395774841,0.066828116774559,0.0892049476906992
0.412739852,-0.0251865386962891,-0.0282467603683472,0.0567972511053085,0.0682507797459191
0.417739852,-0.0280494689941406,-0.0276570320129395,0.0287370979785919,0.0487596649993538
0.422739852,-0.0264368057250977,-0.0259408354759216,0.0351877361536026,0.051088241482272
0.427739852,-0.0170755386352539,0.00627481937408447,0.0207266062498093,0.0275778821611825
0.432739852,-0.0204963684082031,0.00381219387054443,0.00583246350288391,0.0216483618443493
0.437739852,-0.0177125930786133,0.00433963537216187,0.00118260085582733,0.0182747622013547
0.442739852,-0.00121212005615234,0.0100798606872559,-0.00717043876647949,0.0124293209230772
0.447739852,0.00111293792724609,0.0112335681915283,-0.0283627808094025,0.0305266935711326
0.452739852,0.0097503662109375,0.015092670917511,-0.0300310999155045,0.0349960757629578
0.457739852,0.0168695449829102,-0.00863885879516602,-0.0253076553344727,0.03161785646975
0.462739852,0.00817680358886719,-0.00480139255523682,-0.0425186157226563,0.0435631285650067
0.467739852,0.0142974853515625,-0.00517731904983521,-0.0435674339532852,0.0461448157564401
0.472739852,0.0221004486083984,-0.00573068857192993,-0.0332863628864288,0.0403640009712607
0.477739852,0.0290098190307617,0.000833034515380859,-0.0478371232748032,0.0559522466922471
0.482739852,0.032597541809082,-0.00225389003753662,-0.0401813387870789,0.0517901509847014
0.487739852,0.0346899032592773,0.000240743160247803,-0.0592233836650848,0.0686356796291045
0.492739852,0.0396223068237305,-0.0038490891456604,-0.0683794021606445,0.0791232287329848
0.497739852,0.0260343551635742,-0.0123491287231445,-0.0723914951086044,0.0779154490012284
0.502739852,0.0279397964477539,-0.00513201951980591,-0.0541094094514847,0.0611129940444911
0.507739852,0.0319995880126953,0.00337249040603638,-0.0560427010059357,0.0646229963756072
0.512739852,0.0351381301879883,-0.00113379955291748,-0.0560531169176102,0.0661658946188555
0.517739852,0.016942024230957,0.00814437866210938,-0.0591729730367661,0.0620870665021629
0.522739852,0.0143251419067383,0.00121879577636719,-0.0689312368631363,0.0704145621961429
0.527739852,0.0168046951293945,0.021086573600769,-0.0715226233005524,0.0764364246181443
0.532739852,0.00375747680664063,0.014769434928894,-0.0619415789842606,0.0637888238419135
0.537739852,0.00255107879638672,0.0157058835029602,-0.0638613551855087,0.0658137938867198
0.542739852,0.0123872756958008,0.0192272067070007,-0.0610307604074478,0.0651757914630027
0.547739852,0.00942420959472656,0.0272876024246216,-0.0578891634941101,0.0646883623429853
0.552739852,0.00431251525878906,0.026794970035553,-0.0715042501688004,0.0764815402516572
0.557739852,0.00769519805908203,0.0142121911048889,-0.0652575641870499,0.0672291018294705
0.562739852,0.00583934783935547,0.0178245902061462,-0.0515813678503037,0.0548858042531434
0.567739852,0.00598907470703125,0.0177527666091919,-0.0593486875295639,0.0622358132397148
0.572739852,0.0108671188354492,0.00715535879135132,-0.0584225654602051,0.0598539020128904
0.577739852,0.00469589233398438,0.0119512677192688,-0.048848420381546,0.0505079437186098
0.582739852,0.00486278533935547,0.0113117694854736,-0.0419181287288666,0.043689041260698
0.587739852,0.0144796371459961,-0.00627642869949341,-0.040119856595993,0.0431121368338729
0.592739852,0.0135288238525391,-0.00618690252304077,-0.0420580208301544,0.0446114778259176
0.597739852,0.0161323547363281,0.00227165222167969,-0.0329300761222839,0.0367396677526404
0.602739852,0.0153484344482422,-0.00981628894805908,-0.030560702085495,0.0355793546973825
0.607739852,0.0307378768920898,0.0153015851974487,-0.0330999195575714,0.0476923501214372
0.612739852,0.009185791015625,0.00673067569732666,-0.00532183051109314,0.0125699097814631
0.617739852,0.0194339752197266,-0.00357955694198608,-0.0173764526844025,0.0263141355289347
0.622739852,0.0123291015625,0.00137835741043091,-0.0212462246417999,0.0246030216847272
0.627739852,0.0122308731079102,-0.00418263673782349,-0.0129209756851196,0.0182767699476095
0.632739852,0.0158290863037109,-0.00596034526824951,0.0131826996803284,0.0214445624760405
0.637739852,0.0122528076171875,-0.0104202032089233,0.0160712003707886,0.022737533084684
0.642739852,-0.00482559204101563,-0.00751340389251709,0.0179710984230042,0.0200673355263649
0.647739852,0.00921154022216797,-0.0131003856658936,0.035931333899498,0.0393387002029424
0.652739852,0.00891780853271484,0.00607317686080933,0.0346644669771194,0.036304766312657
0.657739852,0.0105752944946289,0.00260770320892334,0.0442006140947342,0.0455228652000901
0.662739852,0.003173828125,-0.0047379732131958,0.0602494329214096,0.0605187222476436
0.667739852,0.00680255889892578,0.00359833240509033,0.0663518160581589,0.066796603939771
0.672739852,0.00347709655761719,-0.00968718528747559,0.0572272390127182,0.0581454094859057
0.677739852,0.0116195678710938,-0.00553417205810547,0.0669533312320709,0.0681791022304568
0.682739852,0.00924968719482422,-0.00777578353881836,0.0775022208690643,0.0784385986774489
0.687739852,0.00979995727539063,-0.00709903240203857,0.0932168960571289,0.0939990698580058
0.692739852,0.011387825012207,0.00240379571914673,0.10276535153389,0.103422329640421
0.697739852,0.0160045623779297,-0.000625133514404297,0.102327227592468,0.103573154415518
0.702739852,0.00321197509765625,-0.00623118877410889,0.121835842728615,0.122037359324751
0.707739852,0.00801658630371094,-0.0086127519607544,0.10925418138504,0.109885946792197
0.712739852,0.00636577606201172,-0.00543904304504395,0.124665297567844,0.124946159251882
0.717739852,0.0142383575439453,-0.00544983148574829,0.130387350916863,0.131275636612013
0.722739852,0.015681266784668,-0.0134968757629395,0.128853529691696,0.130504022533181
0.727739852,0.0154991149902344,-0.0194585919380188,0.136992126703262,0.139232547000956
0.732739852,0.0132741928100586,-0.00236427783966064,0.142960488796234,0.14359490019259
0.737739852,0.0197906494140625,-0.00685578584671021,0.133709788322449,0.135340234583217
0.742739852,0.0128803253173828,-0.00817728042602539,0.138898938894272,0.139734340523016
0.747739852,0.0150337219238281,-0.00512635707855225,0.131233185529709,0.132190927510381
0.752739852,0.0189952850341797,-0.00903451442718506,0.119076371192932,0.12091991350039
0.757739852,0.0235958099365234,-0.00574517250061035,0.125343218445778,0.127674162084457
0.762739852,0.00310420989990234,-0.00938874483108521,0.0973089933395386,0.0978101468834407
0.767739852,-0.000949859619140625,-0.0126821398735046,0.093573808670044,0.0944340858699082
0.772739852,0.00499439239501953,-0.0167867541313171,0.10562689602375,0.107069044234423
0.777739852,0.00155258178710938,-0.0169819593429565,0.0877702236175537,0.0894114623927317
0.782739852,-0.0166120529174805,-0.0070222020149231,0.0826915502548218,0.0846354778258933
0.787739852,-0.00418949127197266,-0.0148409605026245,0.0701525956392288,0.0718275199396411
0.792739852,-0.000738143920898438,-0.0125759840011597,0.0322742909193039,0.0346457801815639
0.797739852,-0.00816535949707031,-0.00697183609008789,0.0373997986316681,0.0389104681528348
0.802739852,-0.0111656188964844,-0.00436770915985107,0.0484754145145416,0.049936096573553
0.807739852,-0.0020294189453125,-0.00361543893814087,0.038782611489296,0.0390036010376054
0.812739852,-0.0123882293701172,-0.000473499298095703,0.022763803601265,0.0259207095371422
0.817739852,-0.0125579833984375,0.00408416986465454,0.0158780664205551,0.0206517888758902
0.822739852,0.00654220581054688,-0.00229406356811523,0.00997455418109894,0.0121472184319615
0.827739852,0.0125513076782227,0.00501734018325806,0.00412480533123016,0.0141323404278446
0.832739852,-0.00140190124511719,0.00228101015090942,-0.00160941481590271,0.00312386786840611
0.837739852,-0.00300884246826172,0.00401347875595093,-0.00372993946075439,0.00625088738533798
0.842739852,0.000263214111328125,0.000868260860443115,0.01372429728508,0.0137542536896566
0.847739852,-0.00841522216796875,0.000180959701538086,-0.0107027590274811,0.013616084655663
0.852739852,-0.00658035278320313,0.00111061334609985,-0.0278612226247787,0.0286492972148258
0.857739852,-0.00310516357421875,0.00894582271575928,-0.0256877988576889,0.0273775965898677
0.862739852,0.00452327728271484,0.000979185104370117,-0.0257833898067474,0.0261954582088505
0.867739852,0.00445556640625,0.0121617913246155,-0.0312067568302155,0.033787910738668
0.872739852,0.0144767761230469,0.0108531713485718,-0.0500785708427429,0.0532468931759394
0.877739852,0.00592899322509766,0.00783789157867432,-0.0348567068576813,0.0362156805544868
0.882739852,0.00870418548583984,-0.0103358030319214,-0.0248403549194336,0.0282778164257782
0.887739852,0.00525569915771484,-0.00126075744628906,-0.0336505025625229,0.0340817870083882
0.892739852,0.00223350524902344,0.00435775518417358,-0.0330150425434113,0.0333762132376617
0.897739852,0.00423812866210938,0.00607848167419434,-0.0386612415313721,0.0393649751780336
0.902739852,0.0189504623413086,0.00601965188980103,-0.0311010181903839,0.0369138126492284
0.907739852,0.0144882202148438,0.00595885515213013,-0.0250491201877594,0.0295444563649205
0.912739852,0.0128984451293945,0.002960205078125,-0.0434834361076355,0.0454526337695339
0.917739852,0.00950813293457031,-0.00140202045440674,-0.0300032794475555,0.0315050318340443
0.922739852,0.00634002685546875,0.00100177526473999,-0.0451268553733826,0.045581054947196
0.927739852,-0.00316333770751953,0.00869286060333252,-0.0219398140907288,0.0238102493320949
0.932739852,0.00454330444335938,-0.00383597612380981,-0.0336451977491379,0.0341665868893292
0.937739852,0.0125703811645508,-0.00473219156265259,-0.0399335473775864,0.0421318920268918
0.942739852,0.00763130187988281,-0.0008658766746521,-0.0329575538635254,0.0338406097383718
0.947739852,0.00679683685302734,0.0102508068084717,-0.0326022505760193,0.0348451255422165
0.952739852,0.00918292999267578,0.00862860679626465,-0.0196883380413055,0.0233754083028222
0.957739852,0.0058135986328125,0.0100882053375244,-0.0185059905052185,0.0218641601845288
0.962739852,-0.00032806396484375,0.00991302728652954,0.00603507459163666,0.0116102481142793
0.967739852,0.00945281982421875,0.00215357542037964,-0.00621144473552704,0.0115141536998128
0.972739852,-0.00337123870849609,0.00992977619171143,0.00675049424171448,0.0124713623215173
0.977739852,0.00897312164306641,0.00248271226882935,0.013520821928978,0.0164162540753423
0.982739852,0.0154705047607422,0.00553417205810547,0.0145282596349716,0.0219324851747814
0.987739852,0.0141782760620117,0.013988196849823,0.0200792253017426,0.0282819456883389
0.992739852,0.0177001953125,-0.017859935760498,0.0248174965381622,0.0353296243100809
0.997739852,0.00282001495361328,0.00238573551177979,0.00927115976810455,0.00997991090724212
1.002739852,0.00432491302490234,-0.00189304351806641,0.0136547386646271,0.0144478501664962
1.007739852,0.00549697875976563,0.0023190975189209,0.0172763615846634,0.0182775178400026
1.012739852,-0.00105190277099609,-0.00418740510940552,0.0302728265523911,0.0305791577461031
1.017739852,-0.00103950500488281,-0.0083240270614624,0.0342748761177063,0.0352865006774439
1.022739852,0.00448226928710938,-0.00454878807067871,0.0446562767028809,0.045110589220696
1.027739852,0.0126199722290039,-0.0113250613212585,0.0512818396091461,0.0540124780646962
1.032739852,-0.00216007232666016,-0.00194573402404785,0.0454952120780945,0.0455880040732157
1.037739852,0.0170011520385742,-0.00706052780151367,0.0480991154909134,0.0515016032224521
1.042739852,0.00977993011474609,-0.00626617670059204,0.0513373762369156,0.052634952288218
1.047739852,0.0119857788085938,-0.00366431474685669,0.0523292571306229,0.0538092673064353
1.052739852,0.00805282592773438,-0.00871962308883667,0.0429490953683853,0.0445590016180392
1.057739852,0.00682449340820313,-0.00958067178726196,0.0494515895843506,0.0508313160816528
1.062739852,0.00121784210205078,0.00322681665420532,0.0544137805700302,0.0545229768173821
1.067739852,-0.00156307220458984,0.00040900707244873,0.0541999489068985,0.0542240255146414
1.072739852,0.00920772552490234,0.00361669063568115,0.048735111951828,0.0497290035839586
1.077739852,0.0126094818115234,0.00143724679946899,0.0505330264568329,0.0521023173458216
1.082739852,0.00346851348876953,-0.00369542837142944,0.0601047575473785,0.0603180624398637
1.087739852,0.00899314880371094,-0.00494599342346191,0.0571277439594269,0.0580423871514986
1.092739852,0.0123987197875977,-0.0104759931564331,0.0496958494186401,0.0522795575194086
1.097739852,0.0151691436767578,-0.0102025270462036,0.0491715520620346,0.0524598514123326
1.102739852,0.00216484069824219,-0.00826358795166016,0.0671590268611908,0.0677001352290063
1.107739852,0.00239944458007813,-0.00820070505142212,0.0493950545787811,0.0501286376682436
1.112739852,0.00990104675292969,-0.00337392091751099,0.0482029020786285,0.049324779147637
1.117739852,-0.00830841064453125,-0.00202465057373047,0.0505890548229218,0.0513067380103281
1.122739852,-0.000769615173339844,-0.000805675983428955,0.0401924997568131,0.0402079402358132
1.127739852,0.0061492919921875,-0.000403404235839844,0.0379854887723923,0.0384821242170987
1.132739852,-0.00879955291748047,-0.00999754667282105,0.0220974236726761,0.0258007597561103
1.137739852,-0.00242042541503906,-0.00361055135726929,0.0445610880851746,0.0447725933091655
1.142739852,-0.00750160217285156,-0.00735378265380859,0.0130363702774048,0.0167421356011947
1.147739852,-0.0100622177124023,-0.00461316108703613,0.0180661827325821,0.021187648265765
1.152739852,-0.00442409515380859,-0.000986874103546143,0.0111937671899796,0.0120767115693663
1.157739852,0.00116825103759766,0.000339925289154053,0.0171320885419846,0.0171752384990559
1.162739852,-0.00106143951416016,-0.0068286657333374,0.0123733431100845,0.0141724009701869
1.167739852,-0.0112991333007813,0.00182396173477173,0.0291517376899719,0.0313180628408538
1.172739852,-0.00655651092529297,-0.0034976601600647,-0.00651197135448456,0.00988064942351551
1.177739852,-0.00962638854980469,-0.00740349292755127,-0.0168866813182831,0.0207999776438669
1.182739852,-0.0111618041992188,-0.00728768110275269,0.000630900263786316,0.0133451940405511
1.187739852,0.00322628021240234,0.00241470336914063,-0.0106179863214493,0.0113569938756857
1.192739852,0.00789928436279297,0.0111315250396729,-0.00721171498298645,0.0154375638022636
1.197739852,-0.00170326232910156,-0.0118197798728943,-0.0135586708784103,0.0180678126732171
1.202739852,-0.00466442108154297,-0.00522089004516602,-0.00877445936203003,0.0112252240060309
1.207739852,0.0064849853515625,0.00098574161529541,-0.0103819966316223,0.0122805771688925
1.212739852,0.00270557403564453,-0.00205427408218384,-0.0134147554636002,0.0138382020875284
1.217739852,0.00671577453613281,0.00785237550735474,-0.023180678486824,0.0253792293783358
1.222739852,-0.0079193115234375,-0.00826734304428101,-0.0151569545269012,0.018994676268566
1.227739852,-0.00120258331298828,-0.0020071268081665,-0.0270181000232697,0.0271192273768288
1.232739852,0.0097198486328125,-0.00200420618057251,-0.0175683200359344,0.0201776650964389
1.237739852,-0.00172710418701172,0.00152760744094849,-0.0121193081140518,0.0123366973915127
1.242739852,0.00600242614746094,0.00227159261703491,-0.000483587384223938,0.00643607873100313
1.247739852,0.00232887268066406,0.00470036268234253,-0.0152797251939774,0.0161550939121928
1.252739852,0.00658988952636719,0.0115631818771362,-0.00524073839187622,0.014303816203571
1.257739852,0.00340175628662109,0.00225025415420532,-0.00822657346725464,0.00918216208766881
1.262739852,0.0134172439575195,0.00085526704788208,-0.0181890428066254,0.0226184702259025
1.267739852,0.0188589096069336,0.00815784931182861,-0.012336477637291,0.0239665946152634
1.272739852,0.00821304321289063,-0.00036543607711792,-0.0138148665428162,0.0160760119413706
1.277739852,0.00126361846923828,0.00798749923706055,-0.0121462792158127,0.0145920860224413
1.282739852,0.00681304931640625,0.00746273994445801,-0.0154534727334976,0.0184640176557364
1.287739852,-0.00561809539794922,0.011724591255188,0.00208406150341034,0.0131670933904065
1.292739852,0.0120134353637695,0.00470906496047974,-0.00545695424079895,0.014009863369343
1.297739852,0.0158491134643555,-0.012920618057251,0.00418278574943543,0.0208718103003322
1.302739852,0.0101795196533203,-0.0128260850906372,0.0126127302646637,0.0206691084436113
1.307739852,0.00937557220458984,-0.00946909189224243,0.0125865489244461,0.0183299282392126
1.312739852,0.00285053253173828,0.01052325963974,0.0126107335090637,0.0166701868254828
1.317739852,-0.000374794006347656,0.00573378801345825,0.0164252370595932,0.0174012990318052
1.322739852,0.0160617828369141,-0.00470578670501709,0.00400255620479584,0.0172088858612594
1.327739852,0.00405216217041016,0.00438261032104492,0.00189408659934998,0.00626217658065227
1.332739852,0.00670242309570313,0.00418245792388916,0.0126869380474091,0.0149456959241687
1.337739852,0.00664520263671875,0.0022544264793396,0.0199601948261261,0.0211577535275065
1.342739852,0.00209903717041016,0.00670826435089111,0.00851444900035858,0.011040951472763
1.347739852,0.00602436065673828,0.00329989194869995,0.0303346514701843,0.0311026250984239
1.352739852,0.00450325012207031,0.0076136589050293,0.0217720717191696,0.023500429156267
1.357739852,0.0112409591674805,-0.00907707214355469,0.0237596929073334,0.0278078299900414
1.362739852,0.00520133972167969,-0.0018269419670105,0.0142915099859238,0.0153179277165322
1.367739852,0.00918674468994141,0.0108590722084045,0.0373658239841461,0.0399815023384527
1.372739852,0.00185489654541016,0.00712639093399048,0.0310423076152802,0.0319037764382199
1.377739852,0.0103721618652344,0.00155121088027954,0.0324740558862686,0.0341255373973542
1.382739852,0.00619983673095703,-0.00251716375350952,0.0232508778572083,0.0241945739781324
1.387739852,0.00388526916503906,-0.000191390514373779,0.0305181294679642,0.0307650479121554
1.392739852,-0.00784587860107422,-0.003825843334198,0.0204638689756393,0.022247804873577
1.397739852,0.00663280487060547,0.000671803951263428,0.0126425474882126,0.014292635445997
1.402739852,0.010894775390625,-0.00227093696594238,0.00624726712703705,0.0127625088470884
1.407739852,0.00854873657226563,-0.0117982625961304,0.0365226566791534,0.0393215506837224
1.412739852,-0.00193595886230469,-0.0116896629333496,0.0250704735517502,0.0277294933296818
1.417739852,-0.0010986328125,-0.00209611654281616,0.0297471731901169,0.0298411630373311
1.422739852,0.00606632232666016,0.00747239589691162,0.0184390693902969,0.0207999097832491
1.427739852,0.0107307434082031,-0.0124661326408386,0.0271985977888107,0.0317854847184871
1.432739852,0.00119972229003906,0.00307297706604004,0.0244731158018112,0.02469445117168
1.437739852,0.00418186187744141,0.0239697098731995,0.0183213353157043,0.0304582712562258
1.442739852,-0.00363826751708984,0.00878649950027466,0.0320277363061905,0.0334098107880471
1.447739852,-0.00113868713378906,-0.00485974550247192,0.0261848568916321,0.0266563400558423
1.452739852,0.00114536285400391,0.00472009181976318,0.023663192987442,0.0241565275901826
1.457739852,0.00113201141357422,0.00792795419692993,0.0152101814746857,0.0171896343207746
1.462739852,0.0103187561035156,0.0070531964302063,0.018564909696579,0.0223803525318313
1.467739852,0.0029449462890625,-0.000420570373535156,0.0228970944881439,0.0230895327818375
1.472739852,0.00345802307128906,-0.00998431444168091,0.0173396468162537,0.0203053640731788
1.477739852,0.00177383422851563,-0.00430071353912354,0.0209745317697525,0.0214842641897788
1.482739852,0.00370979309082031,-0.00204139947891235,0.0146432220935822,0.0152431568217077
1.487739852,0.000937461853027344,0.00214821100234985,0.00334572792053223,0.00408503862340705
1.492739852,-0.0123224258422852,0.00267839431762695,-0.0113103240728378,0.0169392858583805
1.497739852,0.00577354431152344,0.00158822536468506,-0.00993415713310242,0.0115992996198617
1.502739852,0.000135421752929688,-0.000266909599304199,-0.0209798067808151,0.0209819415771206
1.507739852,-0.00317764282226563,-0.0000640153884887695,-0.0101114958524704,0.0105992386637148
1.512739852,-0.009429931640625,-0.0090528130531311,0.00172664225101471,0.0131855348160319
1.517739852,0.00398635864257813,-0.00723803043365479,0.00724764168262482,0.010991289721661
1.522739852,0.00209331512451172,-0.00668638944625855,0.00187686085700989,0.00725343909563754
1.527739852,0.0129632949829102,-0.00661927461624146,-0.0136211216449738,0.0199348129694345
1.532739852,0.00567722320556641,0.00129801034927368,-0.00885500013828278,0.010598430149868
1.537739852,-0.00267982482910156,0.00690829753875732,-0.00594598054885864,0.00950056422987998
1.542739852,-0.00500392913818359,0.0100446343421936,-0.00494453310966492,0.0122630499289904
1.547739852,-0.00818252563476563,-0.00965040922164917,0.00741264224052429,0.0146639486119835
1.552739852,0.00101661682128906,0.00195759534835815,0.00200177729129791,0.00297872483341402
1.557739852,0.00100612640380859,-0.00541502237319946,-0.00967103242874146,0.0111294036623918
1.562739852,0.000996589660644531,0.000165760517120361,-0.00814007222652435,0.00820252664450246
1.567739852,0.00673294067382813,-0.00286531448364258,-0.00501617789268494,0.00887155893056695
1.572739852,0.0104246139526367,-0.00292694568634033,-0.0122745186090469,0.0163677547084545
1.577739852,-0.00312232971191406,-0.00633883476257324,-0.0153300017118454,0.0168801280049143
1.582739852,0.00981616973876953,-0.00855046510696411,-0.00257626175880432,0.0132704471113683
1.587739852,0.00418567657470703,0.0084800124168396,-0.0151294022798538,0.0178417855699325
1.592739852,0.00725269317626953,0.000406742095947266,-0.00200486183166504,0.00753567969102917
1.597739852,0.00602149963378906,-0.0000057220458984375,0.00760059058666229,0.00969677615744483
1.602739852,0.0119857788085938,-0.00935906171798706,0.0116038471460342,0.0191285179373142
1.607739852,0.00561618804931641,-0.00200927257537842,0.00890934467315674,0.0107217147412417
1.612739852,0.00115299224853516,-0.00794249773025513,-0.00225807726383209,0.00833736014873566
1.617739852,0.00815677642822266,0.00533103942871094,0.00956553220748901,0.0136547570283396
1.622739852,0.00787734985351563,-0.00659298896789551,-0.0034300833940506,0.0108298483985519
1.627739852,0.00343990325927734,-0.00465905666351318,0.00716623663902283,0.00921383150450922
1.632739852,0.00120925903320313,0.0131440758705139,0.00107687711715698,0.0132434399694591
1.637739852,0.000337600708007813,0.00802707672119141,0.0087617039680481,0.0118876150404381
1.642739852,0.00982856750488281,0.00713342428207398,0.00403600931167603,0.0127974939871077
1.647739852,0.00974655151367188,0.00308668613433838,0.00552679598331451,0.0116218919088829
1.652739852,0.00493431091308594,0.000675559043884277,0.00157119333744049,0.00522230339145383
1.657739852,0.00647449493408203,-0.00807672739028931,-0.00558772683143616,0.01176330315563
1.662739852,0.00161075592041016,-0.0111165642738342,0.0143583118915558,0.018230020742298
1.667739852,-0.00459098815917969,-0.00149345397949219,0.00390568375587463,0.00620982629930114
1.672739852,0.00485515594482422,-0.00146448612213135,0.00766842067241669,0.00919358115532924
1.677739852,-0.0018157958984375,-0.00309967994689941,0.00536864995956421,0.0064596852017975
1.682739852,-0.00922203063964844,0.00123292207717896,0.00349250435829163,0.00993798433585482
1.687739852,-0.00131320953369141,-0.00832253694534302,-0.00110119581222534,0.00849716262659719
1.692739852,0.008331298828125,-0.00339066982269287,0.0274684280157089,0.0289036627378646
1.697739852,0.000247955322265625,-0.00593256950378418,0.0174311101436615,0.0184146806542913
1.702739852,0.00390243530273438,-0.00221413373947144,0.00718584656715393,0.00847158665156482
1.707739852,-0.00168514251708984,-0.000736594200134277,0.0121783912181854,0.0123164722620461
1.712739852,-0.00722503662109375,0.00307857990264893,0.0168102979660034,0.0185543775454462
1.717739852,0.000780105590820313,0.0020982027053833,0.0181333273649216,0.0182709764558198
1.722739852,0.000707626342773438,0.0117964744567871,-0.00294189155101776,0.0121783525383595
1.727739852,0.0001373291015625,0.00710219144821167,0.026205837726593,0.0271515361186382
1.732739852,0.0022430419921875,-0.0077967643737793,0.0125914812088013,0.0149788574701326
1.737739852,0.00589656829833984,0.00890958309173584,0.0218916684389114,0.024359707215087
1.742739852,0.0000782012939453125,0.00685620307922363,0.0255858153104782,0.0264886311690097
1.747739852,-0.0103425979614258,0.00541800260543823,0.0241103321313858,0.0267886580535487
1.752739852,0.00305938720703125,0.00367248058319092,0.00502993166446686,0.00693881663294737
1.757739852,0.00489044189453125,0.00723457336425781,0.00780043005943298,0.011709064129926
1.762739852,0.00600242614746094,0.000692367553710938,0.0121521949768066,0.01357145295241
1.767739852,0.00758552551269531,0.0117784142494202,0.0139877051115036,0.019797149638801
1.772739852,0.00473308563232422,0.01170414686203,0.0110557228326797,0.0167814826735875
1.777739852,0.00112056732177734,0.000540077686309815,0.0141288638114929,0.0141835167583219
1.782739852,0.00870323181152344,-0.00182175636291504,0.00756634771823883,0.0116753868460207
1.787739852,0.00460910797119141,0.00336712598800659,0.00110815465450287,0.00581458686817094
1.792739852,-0.0016937255859375,0.00386768579483032,-0.00507692992687225,0.00660325050640688
1.797739852,-0.0129776000976563,-0.0108188390731812,0.0018417239189148,0.0169958033108053
1.802739852,0.000917434692382813,-0.0104418396949768,0.00465120375156403,0.0114676675470186
1.807739852,0.00833892822265625,0.000732779502868652,-0.00455282628536224,0.00952905645313967
1.812739852,0.00485706329345703,0.00733405351638794,0.00575776398181915,0.0105133843688997
1.817739852,-0.0102319717407227,0.0022280216217041,-0.00613746047019959,0.0121377818020012
1.822739852,-0.0102920532226563,-0.00335973501205444,0.0051112174987793,0.0119724150950859
1.827739852,-0.00650978088378906,-0.00242060422897339,0.00601620972156525,0.00918865340526704
1.832739852,-0.00827693939208984,-0.00615024566650391,0.0111309736967087,0.0151733919377145
1.837739852,-0.00843048095703125,-0.000119924545288086,-0.00031144917011261,0.00843708430970042
1.842739852,-0.000164985656738281,-0.0109760761260986,-0.00318476557731628,0.0114299693427104
1.847739852,0.011815071105957,-0.00189727544784546,0.00221855938434601,0.0121703559974919
1.852739852,-0.00178050994873047,-0.00189787149429321,0.00773586332798004,0.00816184497007664
1.857739852,-0.00196361541748047,0.00262320041656494,0.00420272350311279,0.00532915103715875
1.862739852,0.00287437438964844,0.00453537702560425,-0.000225678086280823,0.00537425376167455
1.867739852,-0.00206756591796875,-0.00488895177841187,0.00525268912315369,0.00746775878970924
1.872739852,-0.00466060638427734,0.0121407508850098,-0.00331228971481323,0.013419774479323
1.877739852,-0.00787544250488281,0.0163084268569946,0.000268906354904175,0.0181124181661469
1.882739852,-0.00292015075683594,0.00749337673187256,0.0155641585588455,0.0175191611366898
1.887739852,-0.00455570220947266,0.00259935855865479,0.00110466778278351,0.00536016589744812
1.892739852,0.000253677368164063,0.00421816110610962,-0.000563517212867737,0.0042631897651187
1.897739852,0.00820446014404297,0.00258678197860718,-0.0148928612470627,0.0171988930860186
1.902739852,0.014307975769043,-0.00206255912780762,0.00109170377254486,0.014497038935252
1.907739852,-0.000777244567871094,0.00569498538970947,-0.00109302997589111,0.00585078475381602
1.912739852,-0.00301456451416016,-0.00544792413711548,0.00564572215080261,0.00840485902427057
1.917739852,0.000102996826171875,-0.00174033641815186,0.00128601491451263,0.00216638259661031
1.922739852,0.000101089477539063,-0.00241857767105103,-0.00391368567943573,0.00460181188563766
1.927739852,0.00009918212890625,-0.00276875495910645,-0.00825993716716766,0.00871219852412861
1.932739852,-0.00450801849365234,0.0022428035736084,-0.00300706923007965,0.0058647134596154
1.937739852,0.00109004974365234,-0.0106082558631897,0.0128444135189056,0.0166943780820725
1.942739852,0.00488662719726563,-0.00141769647598267,0.0222056359052658,0.022781116184689
1.947739852,0.00484848022460938,0.00243878364562988,0.0123155415058136,0.0134583798705504
1.952739852,0.00144290924072266,0.00482451915740967,0.00478236377239227,0.00694470844806791
1.957739852,-0.00411891937255859,-0.00495624542236328,0.0187024623155594,0.0197816066624846
1.962739852,0.00887203216552734,-0.001353919506073,0.0151399075984955,0.0176000811039625
1.967739852,-0.00262069702148438,0.00559115409851074,0.00294670462608337,0.00684193870076981
1.972739852,0.0029449462890625,0.00743889808654785,-0.00441059470176697,0.00913582284256668
1.977739852,0.000034332275390625,0.0112193822860718,0.00678113102912903,0.0131095177493442
1.982739852,0.00350856781005859,0.00283515453338623,0.00741653144359589,0.00868061564405465
1.987739852,-0.00380039215087891,-0.00998902320861816,0.0103539526462555,0.014880453641058
1.992739852,-0.00911045074462891,0.00765740871429443,0.00529573857784271,0.0130261685876129
1.997739852,-0.00692844390869141,0.0064278244972229,-0.00244919955730438,0.00976313685423296
2.002739852,-0.00624275207519531,-0.00307345390319824,-0.000824198126792908,0.00700695189933889
2.007739852,0.00496864318847656,-0.008658766746521,-0.00366191565990448,0.010633498154667
2.012739852,-0.00579071044921875,-0.00305229425430298,-0.000127971172332764,0.00654715238424236
2.017739852,0.00386714935302734,-0.0150067210197449,-0.00340379774570465,0.0158663908617157
2.022739852,0.00360774993896484,0.00815343856811523,0.00698313117027283,0.0113251287430813
2.027739852,-0.00934314727783203,0.012339174747467,0.014739453792572,0.0213729065081742
2.032739852,-0.00310039520263672,0.00810515880584717,0.00261445343494415,0.00906319019131928
2.037739852,-0.000737190246582031,0.00264054536819458,0.00525723397731781,0.00592911784276669
2.042739852,-0.0118408203125,-0.0120847225189209,-0.00581912696361542,0.0178915561830407
2.047739852,-0.00940799713134766,0.00167220830917358,-0.0000474900007247925,0.00955557146134567
2.052739852,0.00517177581787109,0.00691121816635132,0.00573903322219849,0.0103657466676896
2.057739852,0.00377941131591797,0.00265961885452271,0.0111974477767944,0.0121136435088812
2.062739852,0.00250911712646484,-0.0016714334487915,0.0102102607488632,0.0106460689030193
2.067739852,0.00211143493652344,0.00204026699066162,0.0138874650001526,0.0141944542344825
2.072739852,0.00785541534423828,-0.00773972272872925,0.000301167368888855,0.0110318429979848
2.077739852,0.00516319274902344,-0.00694739818572998,0.00463686883449554,0.00981964630233536
2.082739852,-0.00517559051513672,-0.00195378065109253,-0.00193195044994354,0.00585972939255677
2.087739852,-0.00633525848388672,-0.000476300716400147,0.0130965560674667,0.0145561719987915
2.092739852,0.00934410095214844,0.000610589981079102,0.00967040657997131,0.013461122024218
2.097739852,0.00390052795410156,-0.00490450859069824,0.00966949760913849,0.0115224783293394
2.102739852,0.01483154296875,-0.00650113821029663,0.0134447067975998,0.0210475558138393
2.107739852,0.00504112243652344,-0.00167340040206909,-0.0044839084148407,0.00695115954343908
2.112739852,0.00406455993652344,0.00645530223846436,0.00625249743461609,0.0098633310112454
2.117739852,0.00157737731933594,-0.0000432729721069336,0.012644037604332,0.0127421222210993
2.122739852,0.0000467300415039063,-0.00154048204421997,0.0069722980260849,0.00714060280297753
2.127739852,-0.00156593322753906,-0.00947642326354981,0.0107900500297546,0.0144457580066837
2.132739852,0.0000238418579101563,-0.00304901599884033,-0.0021040290594101,0.00370459245777657
2.137739852,0.00954914093017578,0.00332850217819214,-0.000470176339149475,0.0101235411316636
2.142739852,0.00912666320800781,0.0102336406707764,-0.00604900717735291,0.0149871234906048
2.147739852,-0.00776481628417969,0.00175029039382935,-0.00501726567745209,0.00940897673862212
2.152739852,0.00221920013427734,0.00790774822235107,0.00678013265132904,0.0106502361454426
2.157739852,0.00317764282226563,-0.00197410583496094,-0.00405809283256531,0.00551929571514709
2.162739852,0.000555992126464844,-0.00641590356826782,-0.00174602866172791,0.00667244797129045
2.167739852,-0.00961399078369141,0.00297319889068604,-0.0000957101583480835,0.010063691711638
2.172739852,-0.00858974456787109,-0.0035671591758728,0.00826871395111084,0.0124450780123139
2.177739852,-0.00296306610107422,-0.0128783583641052,0.00619539618492127,0.0145950268503279
2.182739852,0.00262069702148438,-0.000371575355529785,0.0092313289642334,0.00960330961539555
2.187739852,0.004791259765625,0.00605916976928711,0.0125835388898849,0.0147653364143181
2.192739852,0.00475788116455078,-0.000884711742401123,0.00145077705383301,0.00505221754312479
2.197739852,0.00425243377685547,0.00808322429656982,0.0228555202484131,0.0246129338738968
2.202739852,-0.00479602813720703,0.00596845149993897,0.00924776494503021,0.0120060591235649
2.207739852,-0.00660228729248047,0.00596243143081665,0.0129514336585999,0.015712428834294
2.212739852,0.00119781494140625,0.0148252248764038,-0.00254447758197784,0.0150896129650494
2.217739852,0.00953388214111328,0.00566184520721436,-0.00870110094547272,0.0140946996241283
2.222739852,0.00518703460693359,-0.00117671489715576,0.0166918933391571,0.0175188267075313
2.227739852,-0.0000677108764648438,0.00112932920455933,-0.00779271125793457,0.00787440905494517
2.232739852,0.00107860565185547,-0.0195960402488709,0.0109359472990036,0.0224669340790898
2.237739852,0.00662612915039063,0.000543117523193359,-0.00186446309089661,0.00690483792561214
2.242739852,0.00936317443847656,0.0116084218025208,0.000878840684890747,0.0149397742037823
2.247739852,0.00928497314453125,0.00323641300201416,-0.00598347187042236,0.0115103010837427
2.252739852,0.000453948974609375,0.00286036729812622,0.00796084105968475,0.00847129040520401
2.257739852,0.0126361846923828,0.00192087888717651,-0.00624558329582214,0.0142256897894008
2.262739852,-0.00164413452148438,-0.00979334115982056,-0.0129926651716232,0.0163530442933199
2.267739852,-0.00513648986816406,-0.0062287449836731,0.00859254598617554,0.0117903621132655
2.272739852,0.00348281860351563,-0.000472664833068848,-0.00339178740978241,0.00488443029457612
2.277739852,0.00176715850830078,0.0179001688957214,-0.00368991494178772,0.0183617637487917
2.282739852,0.00854015350341797,-0.0048714280128479,0.00398416817188263,0.0106084225391028
2.287739852,0.00371837615966797,0.00242620706558228,0.0184278637170792,0.0189551830158696
2.292739852,-0.00187492370605469,-0.00457054376602173,0.0155106335878372,0.0162783587476376
2.297739852,-0.00311470031738281,-0.00494968891143799,0.00850535929203033,0.010321914312454
2.302739852,0.00542068481445313,-0.00308209657669067,0.00539998710155487,0.00824881833129146
2.307739852,0.00140571594238281,0.0197357535362244,0.00356024503707886,0.0201035158536338
2.312739852,-0.00513839721679688,-0.00106513500213623,0.00808492302894592,0.00963865233911576
2.317739852,-0.0106496810913086,0.00267493724822998,-0.0013432651758194,0.0110623396241985
2.322739852,-0.0117712020874023,0.00558656454086304,-0.00128531455993652,0.0130928581856552
2.327739852,-0.00281524658203125,0.00992661714553833,0.00102905929088593,0.0103692962295371
2.332739852,-0.00335597991943359,0.00739353895187378,0.000498607754707336,0.00813484044991484
2.337739852,-0.00113868713378906,-0.00423377752304077,0.00272612273693085,0.00516267621298037
2.342739852,0.00442981719970703,0.00724309682846069,-0.0010356605052948,0.00855326398350391
2.347739852,0.00119876861572266,0.0179923176765442,-0.00500984489917755,0.0187152100571044
2.352739852,0.00766277313232422,-0.000576198101043701,-0.000907242298126221,0.00773777648401824
2.357739852,0.00911521911621094,0.00737512111663818,0.00626137852668762,0.0132922718929491
2.362739852,0.00750446319580078,0.00265061855316162,-0.00231379270553589,0.00828832813392931
2.367739852,0.000306129455566406,-0.00214362144470215,-0.00215385854244232,0.00305416678696565
2.372739852,0.0136737823486328,-0.00212812423706055,0.00892844796180725,0.0164687103166231
2.377739852,0.00109672546386719,-0.00766313076019287,0.00417518615722656,0.00879537146676621
2.382739852,0.00725460052490234,-0.00655573606491089,0.00416587293148041,0.0106283301327127
2.387739852,0.00409507751464844,-0.00213384628295898,0.00418271124362946,0.00623041195731561
2.392739852,0.004058837890625,-0.0067170262336731,0.000885277986526489,0.00789786829211871
2.397739852,-0.0000476837158203125,0.00553184747695923,0.00758211314678192,0.00938573651961837
2.402739852,0.0038909912109375,-0.00213032960891724,0.00837953388690949,0.00948128182304939
2.407739852,-0.00169658660888672,-0.00672096014022827,-0.00454221665859222,0.00828742683235175
2.412739852,0.00150203704833984,-0.00490665435791016,0.0130104571580887,0.0139858273886476
2.417739852,0.0109233856201172,0.000671267509460449,0.00127491354942322,0.0110180015444518
2.422739852,-0.00481510162353516,0.00620156526565552,0.00908990204334259,0.0120112836344297
2.427739852,-0.00613689422607422,0.0033419132232666,0.000625878572463989,0.00701580919932525
2.432739852,0.00350856781005859,-0.00658339262008667,-0.000772252678871155,0.00749983204265367
2.437739852,-0.00763320922851563,-0.00203204154968262,0.00606606900691986,0.00995953157445903
2.442739852,-0.00574398040771484,-0.000217258930206299,0.00410568714141846,0.00706379354668405
2.447739852,0.000820159912109375,0.00265002250671387,0.00473512709140778,0.00548786936244889
2.452739852,0.00147438049316406,0.00612920522689819,0.00879347324371338,0.0108197100811418
2.457739852,-0.00451278686523438,0.00740218162536621,-0.0045267641544342,0.00978003741382473
2.462739852,-0.00100612640380859,0.00396943092346191,0.0119764506816864,0.0126571735836814
2.467739852,-0.00312328338623047,0.0204876065254211,0.00307339429855347,0.0209509587552829
2.472739852,-0.00172710418701172,0.0109429359436035,0.00303488969802856,0.0114865700458319
2.477739852,0.000926971435546875,0.0107859373092651,0.0113110989332199,0.0156568412765413
2.482739852,0.00175380706787109,-0.00111567974090576,0.0136720687150955,0.0138291736364063
2.487739852,0.00812339782714844,-0.0069727897644043,-0.0138018727302551,0.0174671428750915
2.492739852,0.00449848175048828,0.00391960144042969,-0.00979176163673401,0.0114663947892051
2.497739852,0.00753307342529297,0.011871874332428,0.00203382968902588,0.0142065146534884
2.502739852,-0.000130653381347656,-0.000177204608917236,-0.00147408246994019,0.00149043312753845
2.507739852,0.00305271148681641,-0.00315135717391968,0.00147625803947449,0.00462919401823567
2.512739852,0.00502967834472656,0.00774091482162476,-0.00764793157577515,0.0119879224186178
2.517739852,0.00391292572021484,0.0030970573425293,0.0116374343633652,0.0126622521865767
2.522739852,-0.00453948974609375,-0.00271415710449219,0.0118526816368103,0.0129792017445733
2.527739852,0.00392532348632813,-0.00283640623092651,0.00331811606884003,0.00587054162964989
2.532739852,0.00389575958251953,-0.00760811567306519,0.00111404061317444,0.00861982907645708
2.537739852,0.00386142730712891,-0.00797820091247559,-0.00447352230548859,0.00992847986681602
2.542739852,0.00383186340332031,0.0103886723518372,-0.0100026428699493,0.0149218147274143
2.547739852,0.00380134582519531,-0.00141227245330811,0.00727199018001556,0.00832625874828218
2.552739852,0.00788307189941406,-0.00946438312530518,0.00850637257099152,0.014969159790396
2.557739852,0.00226783752441406,0.00154668092727661,0.00964623689651489,0.0100292170776999
2.562739852,0.00119972229003906,-0.00172668695449829,0.0052143782377243,0.00562232352485198
2.567739852,0.00674247741699219,-0.00172024965286255,-0.00151723623275757,0.0071219566393524
2.572739852,-0.00322437286376953,0.0060076117515564,0.00120964646339417,0.00692468222292214
2.577739852,-0.00583648681640625,0.00774973630905151,0.016917809844017,0.0195021865732085
2.582739852,-0.00832939147949219,0.00840175151824951,-0.00126349925994873,0.0118980931822261
2.587739852,-0.00240039825439453,0.00926893949508667,0.00585822761058807,0.0112247040887827
2.592739852,-0.0057830810546875,0.0028267502784729,0.0169679969549179,0.0181479327826625
2.597739852,-0.00247097015380859,0.00279438495635986,-0.000394061207771301,0.00375094188448893
2.602739852,-0.00562477111816406,0.00672024488449097,-0.00352184474468231,0.0094447409622978
2.607739852,-0.000881195068359375,-0.00664150714874268,0.0123628526926041,0.0140615165844346
2.612739852,-0.00696182250976563,0.0114685297012329,0.00293406844139099,0.0137332772412235
2.617739852,0.00216197967529297,0.00744450092315674,0.00627441704273224,0.00997311683163244
2.622739852,-0.00780963897705078,0.00250309705734253,0.00516229867935181,0.00969047385245866
2.627739852,-0.00544548034667969,0.00119423866271973,0.00806774199008942,0.00980652451219398
2.632739852,0.00273799896240234,0.00677758455276489,0.00844083726406097,0.0111660209746514
2.637739852,-0.000672340393066406,-0.00209695100784302,-0.0103564560413361,0.0105879850240529
2.642739852,0.000271797180175781,-0.00205999612808228,0.017377033829689,0.0175008217656492
2.647739852,0.007568359375,-0.00551635026931763,-0.00354446470737457,0.0100136613675905
2.652739852,0.00585746765136719,0.00898271799087524,-0.00648680329322815,0.0125330669333345
2.657739852,0.00258445739746094,0.00629144906997681,0.0136655271053314,0.015264612098116
2.662739852,0.00811767578125,0.00212734937667847,0.00935782492160797,0.012569453557073
2.667739852,-0.00515174865722656,-0.0063624382019043,0.0118502974510193,0.014403148398108
2.672739852,0.00184726715087891,0.00270670652389526,0.000569149851799011,0.0033260468558059
2.677739852,-0.00927829742431641,0.000821709632873535,-0.006892129778862,0.0115872111702303
2.682739852,-0.00439453125,-0.00475633144378662,0.00115329027175903,0.00657758862816108
2.687739852,0.00401401519775391,0.00701218843460083,0.000442534685134888,0.00809190593109537
2.692739852,-0.000290870666503906,0.0163465738296509,0.0105980634689331,0.0194836862786382
2.697739852,-0.00518512725830078,-0.00672811269760132,0.00779834389686585,0.0115311409968911
2.702739852,0.000409126281738281,-0.0034104585647583,0.0131375044584274,0.0135791249840166
2.707739852,0.00401210784912109,-0.00311779975891113,0.0060453861951828,0.00789711206572075
2.712739852,0.00397586822509766,-0.000261306762695313,0.000557392835617065,0.00402324447936845
2.717739852,-0.00318241119384766,0.0119711756706238,0.010320171713829,0.0161227395980515
2.722739852,0.00757694244384766,-0.00524938106536865,-0.00125762820243835,0.00930310093798833
2.727739852,-0.000847816467285156,0.00625008344650269,0.00592084228992462,0.00865093690143482
2.732739852,0.0016326904296875,-0.00000852346420288086,-0.000236913561820984,0.00164981172392788
2.737739852,0.0106792449951172,0.00699019432067871,0.00273321568965912,0.013052952091875
2.742739852,-0.00383090972900391,0.00691443681716919,-0.00554391741752625,0.0096550673836464
2.747739852,-0.0114936828613281,-0.00414425134658814,-0.00734640657901764,0.0142565512858026
2.752739852,0.00756072998046875,0.0149694681167603,0.00610116124153137,0.0178458337443625
2.757739852,-0.00350475311279297,-0.00111919641494751,0.00948315858840942,0.0101718332570774
2.762739852,0.00803565979003906,0.0102386474609375,-0.00606581568717957,0.0143595212330163
2.767739852,0.000777244567871094,0.00460326671600342,-0.00476402044296265,0.00667008728263102
2.772739852,0.00856781005859375,-0.0010066032409668,-0.01028972864151,0.0134275513330159
2.777739852,0.00473117828369141,0.00847434997558594,0.0029890239238739,0.0101554379264647
2.782739852,0.00827980041503906,-0.00687909126281738,0.0205958783626556,0.0232393458824546
2.787739852,0.00238418579101563,0.00675123929977417,0.00733615458011627,0.0102509871715975
2.792739852,-0.004425048828125,0.00238984823226929,0.00418637692928314,0.00654356046037669
2.797739852,0.00341224670410156,-0.00753229856491089,-0.00568290054798126,0.0100336587483757
2.802739852,-0.000782966613769531,-0.00747948884963989,0.00184847414493561,0.00774420085190594
2.807739852,0.00187778472900391,-0.00351494550704956,-0.00197800993919373,0.00444898198755146
2.812739852,-0.00103855133056641,-0.007240891456604,0.0064961165189743,0.00978307864532597
2.817739852,-0.00365734100341797,0.00148415565490723,0.00187978148460388,0.00437177763079677
2.822739852,0.00687313079833984,-0.00563967227935791,0.00185360014438629,0.00908194163628652
2.827739852,0.00595664978027344,-0.00967574119567871,0.00421255826950073,0.0121180564227323
2.832739852,0.00199317932128906,-0.000904440879821777,0.00341758131980896,0.00405840352717842
2.837739852,-0.00516891479492188,0.00226825475692749,0.00574328005313873,0.00805282096958995
2.842739852,0.00832748413085938,-0.00719964504241943,0.0159179717302322,0.0193536483560858
2.847739852,0.00743198394775391,0.00151360034942627,0.0030767172574997,0.00818483723112754
2.852739852,0.00182056427001953,-0.000760495662689209,-0.00433216989040375,0.00476030501896272
2.857739852,-0.00619697570800781,0.00478291511535645,0.00148352980613709,0.00796741147500499
2.862739852,-0.010737419128418,0.00381952524185181,0.00209172070026398,0.0115868994170301
2.867739852,-0.00658321380615234,0.00234061479568481,0.00240875780582428,0.00739048684501995
2.872739852,0.0127668380737305,0.00260138511657715,0.010868027806282,0.0169668319766456
2.877739852,0.000664710998535156,0.00809448957443237,-0.00397174060344696,0.00904086973710147
2.882739852,0.0100307464599609,-0.00196158885955811,-0.00422146916389465,0.0110582325576773
2.887739852,0.0104074478149414,0.0122078657150269,-0.0032648891210556,0.0163709027334978
2.892739852,0.0114841461181641,0.00311768054962158,0.00583600997924805,0.01325385063107
2.897739852,0.000285148620605469,-0.00248634815216064,-0.001156285405159,0.0027568519742216
2.902739852,0.00328159332275391,0.00295251607894897,0.0151294469833374,0.0157602782955763
2.907739852,0.000158309936523438,0.0134286880493164,-0.00205177068710327,0.0135854513253816
2.912739852,-0.00729656219482422,0.00774341821670532,0.00163589417934418,0.0107645945259333
2.917739852,-0.00407218933105469,0.00319051742553711,0.00689241290092468,0.00861785837592174
2.922739852,0.000782012939453125,0.0030893087387085,0.0144768506288528,0.0148234468613292
2.927739852,-0.00517559051513672,-0.010143518447876,-0.0013643205165863,0.0114690485287469
2.932739852,-0.00609588623046875,-0.00186038017272949,0.0195081532001495,0.020522886848648
2.937739852,-0.00264167785644531,0.00586670637130737,0.00499244034290314,0.00814378082476554
2.942739852,0.00239372253417969,0.00221282243728638,0.00335203111171722,0.00467574628091793
2.947739852,-0.000540733337402344,-0.000572741031646729,0.000631168484687805,0.00100935548127166
2.952739852,0.00701141357421875,-0.00613915920257568,-0.00332455337047577,0.00989453642857767
2.957739852,-0.00495338439941406,0.00580108165740967,0.00978554785251617,0.0124074780748618
2.962739852,0.00343799591064453,0.00257575511932373,-0.0111317783594131,0.011931924394641
2.967739852,0.00464534759521484,0.00442028045654297,0.00132021307945251,0.00654683863937561
2.972739852,0.00607204437255859,0.00551235675811768,-0.00461971759796143,0.00941262931257789
2.977739852,0.000466346740722656,0.00486493110656738,0.0119485110044479,0.0129093744688751
2.982739852,-0.00509262084960938,0.0118546485900879,-0.00631934404373169,0.01436668331437
2.987739852,-0.0150671005249023,-0.0106549859046936,-0.00387875735759735,0.0188571207106453
2.992739852,-0.00127029418945313,0.00614768266677856,-0.00330312550067902,0.00709353843807193
2.997739852,-0.00259685516357422,0.0018608570098877,-0.00195617973804474,0.00374607590945072
3.002739852,0.000440597534179688,0.00182753801345825,-0.0028272271156311,0.00339517813098517
3.007739852,0.00824928283691406,0.00479364395141602,-0.00502860546112061,0.010785015648573
3.012739852,-0.00309371948242188,0.00653320550918579,-0.00314468145370483,0.00788307655084279
3.017739852,0.012237548828125,-0.00261116027832031,0.00148645043373108,0.0126010036985853
3.022739852,-0.0102424621582031,-0.00165307521820068,0.00227373838424683,0.0106212322721636
3.027739852,-0.00603580474853516,0.00663721561431885,0.00492915511131287,0.0102362170837072
3.032739852,-0.00598049163818359,0.00662332773208618,0.00384853780269623,0.00971833286627844
3.037739852,0.00322246551513672,0.00655996799468994,0.00942061841487885,0.0119233181374295
3.042739852,0.000561714172363281,-0.00123101472854614,-0.00434586405754089,0.00455164305278403
3.047739852,-0.0105447769165039,0.00171291828155518,0.00152193009853363,0.0107908609704204
3.052739852,-0.00513744354248047,0.00912541151046753,-0.00304585695266724,0.0109061315764876
3.057739852,-0.0026092529296875,0.00164544582366943,0.00468125939369202,0.00560623602078469
3.062739852,-0.00344944000244141,0.00661426782608032,0.0183989703655243,0.0198536970289416
3.067739852,-0.00101280212402344,0.0112500190734863,0.00649091601371765,0.0130276892806579
3.072739852,-0.0049591064453125,0.000142395496368408,0.0135836154222488,0.0144612454910662
3.077739852,0.00376796722412109,-0.00301212072372437,0.00170968472957611,0.0051179556593318
3.082739852,-0.000157356262207031,-0.00296616554260254,0.00480923056602478,0.00565257442733534
3.087739852,0.00375938415527344,-0.00459504127502441,0.000221371650695801,0.00594107557213597
3.092739852,0.00617122650146484,-0.00524002313613892,-0.000864461064338684,0.00814181625507544
3.097739852,0.0116758346557617,-0.0126171708106995,-0.0045139342546463,0.0177733991298885
3.102739852,0.0130720138549805,-0.0129503607749939,-0.0070001482963562,0.0196873428018684
3.107739852,0.0128402709960938,-0.00742697715759277,0.00214874744415283,0.0149883176017619
3.112739852,0.00717830657958984,-0.00833320617675781,0.00582283735275269,0.0124449124292439
3.117739852,-0.00191211700439453,-0.010387659072876,-0.0119282603263855,0.0159324526318712
3.122739852,0.00179767608642578,-0.00476539134979248,-0.00031338632106781,0.00510282323960144
3.127739852,0.00943183898925781,-0.00589489936828613,-0.00488728284835815,0.0121488665694113
3.132739852,-0.00452899932861328,-0.00315189361572266,0.00887368619441986,0.0104493337089238
3.137739852,-0.0105533599853516,0.00715714693069458,-0.0122197866439819,0.0176612951051844
3.142739852,-0.000392913818359375,0.0105742812156677,-0.0000566989183425903,0.0105817304475224
3.147739852,-0.00218582153320313,0.0104612708091736,0.00921511650085449,0.0141114979659214
3.152739852,-0.00824451446533203,0.0162314176559448,0.00353161990642548,0.0185446293318105
3.157739852,-0.006072998046875,0.0161391496658325,-0.00558076798915863,0.0181245256093037
3.162739852,-0.00176239013671875,0.0117306709289551,-0.00813268125057221,0.0143824602819144
3.167739852,-0.00913619995117188,0.0292048454284668,0.00173641741275787,0.0306497682124965
3.172739852,0.00740814208984375,0.0146031379699707,0.00502853095531464,0.0171294579996529
3.177739852,-0.00297355651855469,0.0109066963195801,0.00145773589611053,0.0113983795742812
3.182739852,0.00554370880126953,0.0136032104492188,0.0015982985496521,0.0147761497032491
3.187739852,0.00706005096435547,0.0155869126319885,0.00874756276607513,0.0192175966073535
3.192739852,-0.000522613525390625,0.00247484445571899,-0.0151866227388382,0.015395827038153
3.197739852,0.0133800506591797,-0.00417399406433106,-0.0162458419799805,0.0214563595171637
3.202739852,0.0114450454711914,-0.008930504322052,-0.000898838043212891,0.0145447888644612
3.207739852,-0.00417518615722656,-0.00219124555587769,0.00792539119720459,0.00922201508144386
3.212739852,-0.00710868835449219,-0.0101199746131897,0.00163684785366058,0.0124750393662277
3.217739852,-0.00716590881347656,-0.000518441200256348,0.0101623833179474,0.0124456042481705
3.222739852,-0.0104274749755859,0.00795871019363403,-0.00831124186515808,0.0155290065250125
3.227739852,-0.0216121673583984,-0.000753462314605713,0.0140719413757324,0.0258006398654957
3.232739852,-0.0286617279052734,-0.00212103128433228,0.0215815752744675,0.0359410324219067
3.237739852,-0.0124740600585938,0.00334721803665161,0.0203702747821808,0.0241195799638352
3.242739852,-0.00367355346679688,-0.00000131130218505859,0.000715136528015137,0.00374251480245975
3.247739852,0.0152149200439453,-0.000523865222930908,0.00417178869247437,0.0157851844338323
3.252739852,0.0193252563476563,-0.00621628761291504,0.010297492146492,0.0227628229597336
3.257739852,0.0450677871704102,-0.00338113307952881,-0.0111755728721619,0.0465556755977171
3.262739852,0.0674066543579102,-0.0063289999961853,0.00657907128334045,0.0680220366618771
3.267739852,0.101567268371582,-0.0155815482139587,0.00506028532981873,0.102880032741189
3.272739852,0.11662769317627,-0.0250726938247681,-0.0154014080762863,0.120282426654856
3.277739852,0.136955261230469,-0.0243383646011353,-0.00456787645816803,0.139176021876977
3.282739852,0.210516929626465,-0.0204511880874634,-0.00485236942768097,0.211563641116817
3.287739852,0.263867378234863,-0.0414491295814514,-0.00637535750865936,0.267179095033582
3.292739852,0.343676567077637,-0.0423079133033752,-0.0174993276596069,0.346712804428815
3.297739852,0.376618385314941,-0.0351265072822571,-0.00746820867061615,0.37832664961886
3.302739852,0.382864952087402,-0.0380678176879883,0.0126182287931442,0.384959673184466
3.307739852,0.377450942993164,-0.034002423286438,0.00637286901473999,0.379032970353844
3.312739852,0.348182678222656,-0.0370775461196899,0.000390410423278809,0.350151501868631
3.317739852,0.34131908416748,-0.0423237085342407,0.00234439969062805,0.343941142829596
3.322739852,0.350441932678223,-0.045099139213562,-0.00799277424812317,0.353422360607296
3.327739852,0.362903594970703,-0.0427217483520508,-0.00314632058143616,0.365423133310026
3.332739852,0.349893569946289,-0.0415747761726379,-0.00435030460357666,0.352381749603619
3.337739852,0.305697441101074,-0.0379279851913452,0.00521573424339294,0.308085477489799
3.342739852,0.262834548950195,-0.0300190448760986,0.0110424309968948,0.264773636262085
3.347739852,0.235346794128418,-0.0231991410255432,0.000612720847129822,0.236488243000965
3.352739852,0.227179527282715,-0.0261677503585815,-0.0191352218389511,0.229480817259423
3.357739852,0.215315818786621,-0.0301105976104736,-0.0057891458272934,0.217488078104577
3.362739852,0.178816795349121,-0.00811845064163208,0.00706878304481506,0.179140512541091
3.367739852,0.105018615722656,-0.0100014209747314,0.0258143991231918,0.108606267185224
3.372739852,0.017298698425293,0.00193357467651367,0.0182099193334579,0.0251909674361652
3.377739852,-0.0287456512451172,-0.00031125545501709,0.0211950540542603,0.0357160980767384
3.382739852,-0.0378618240356445,0.000535786151885986,0.00229628384113312,0.0379351776796381
3.387739852,-0.0122547149658203,0.00372517108917236,-0.00558656454086304,0.0139737125312615
3.392739852,0.0172157287597656,-0.00152498483657837,-0.000262930989265442,0.0172851389403363
3.397739852,0.0422096252441406,-0.00591415166854858,0.0179289877414703,0.046239358285374
3.402739852,0.0768356323242188,-0.0121031403541565,0.0230262577533722,0.0811197198418466
3.407739852,0.153360366821289,-0.0198431611061096,-0.00396347045898438,0.15468956736743
3.412739852,0.260543823242188,-0.0358453392982483,-0.0204280465841293,0.263790214500664
3.417739852,0.359294891357422,-0.0486177206039429,-0.0258906632661819,0.363492542092169
3.422739852,0.38090991973877,-0.0583012700080872,-0.0064011961221695,0.385398988519361
3.427739852,0.347798347473145,-0.0592554211616516,0.0140131711959839,0.353088182199664
3.432739852,0.397332191467285,-0.044621467590332,-0.027831956744194,0.400797409625263
3.437739852,0.485295295715332,-0.0547718405723572,-0.0328925997018814,0.48948278997148
3.442739852,0.531050682067871,-0.0648701190948486,-0.0300196409225464,0.535839657096458
3.447739852,0.507262229919434,-0.0607147812843323,0.0122552067041397,0.511029788427839
3.452739852,0.428178787231445,-0.0615320801734924,0.0495699793100357,0.435408375636328
3.457739852,0.353002548217773,-0.0498471260070801,0.0449758768081665,0.359330439169952
3.462739852,0.368627548217773,-0.0668038129806519,0.0228172987699509,0.375326055393118
3.467739852,0.433155059814453,-0.0610795617103577,-0.0357552617788315,0.438899142681396
3.472739852,0.397089958190918,-0.060027003288269,-0.0113002061843872,0.401760339854053
3.477739852,0.264139175415039,-0.0421494245529175,0.0350808948278427,0.269771657445702
3.482739852,0.177559852600098,-0.031731128692627,0.0507465153932571,0.187375490948081
3.487739852,0.114204406738281,-0.0241714715957642,0.0377233177423477,0.122678259113169
3.492739852,-0.0005340576171875,-0.0226858258247376,0.00381705164909363,0.0230109059834821
3.497739852,-0.0514211654663086,0.0090675950050354,-0.00403010845184326,0.0523698320717419
3.502739852,-0.0364837646484375,-0.00424051284790039,0.0106283277273178,0.0382362182023152
3.507739852,-0.0314960479736328,-0.0132759213447571,0.0159323066473007,0.0377106022308472
3.512739852,-0.0708494186401367,-0.0070188045501709,0.0261305868625641,0.0758400376367316
3.517739852,-0.157011985778809,-0.00478905439376831,0.038091853260994,0.161637520412336
3.522739852,-0.166293144226074,0.00675076246261597,0.0341917276382446,0.169906023581592
3.527739852,-0.22288990020752,0.0132514238357544,0.0132867842912674,0.223678444390593
3.532739852,-0.280620574951172,0.0141865611076355,0.0122500956058502,0.281245854092713
3.537739852,-0.357556343078613,0.0151165723800659,0.020284578204155,0.358450154622917
3.542739852,-0.429712295532227,0.0246684551239014,0.0231374353170395,0.431041216733186
3.547739852,-0.480545043945313,0.0266744494438171,0.0207732170820236,0.481732905313172
3.552739852,-0.488162040710449,0.0370785593986511,0.0267937928438187,0.4903008310136
3.557739852,-0.477730751037598,0.0400732159614563,0.0070144534111023,0.479459837401525
3.562739852,-0.419288635253906,0.0407323241233826,-0.0254191309213638,0.422028688714847
3.567739852,-0.348554611206055,0.0352179408073425,-0.0289457887411118,0.351523084638205
3.572739852,-0.306157112121582,0.0453919768333435,-0.01712566614151,0.309977252881976
3.577739852,-0.309737205505371,0.0409720540046692,0.0111214518547058,0.312633223402431
3.582739852,-0.298069953918457,0.0417923331260681,-0.0286565870046616,0.302346649585913
3.587739852,-0.280025482177734,0.0275076031684876,-0.0360984653234482,0.283679463655119
3.592739852,-0.281229972839355,0.0251880288124084,-0.0504169762134552,0.286821557608886
3.597739852,-0.293400764465332,0.038105309009552,-0.0421387851238251,0.298850632214935
3.602739852,-0.30620002746582,0.0368584990501404,-0.0236849039793015,0.309318574367604
3.607739852,-0.330806732177734,0.0369529128074646,-0.0246749669313431,0.333777569366382
3.612739852,-0.37974739074707,0.0351974964141846,-0.0118055939674377,0.381557749995933
3.617739852,-0.387444496154785,0.0351366400718689,-0.0205170661211014,0.389575116092382
3.622739852,-0.387109756469727,0.0417008996009827,-0.0258218497037888,0.390204685394355
3.627739852,-0.360756874084473,0.0225324630737305,-0.0331530421972275,0.362977076822077
3.632739852,-0.345317840576172,0.0252823829650879,-0.0281700193881989,0.347386182656874
3.637739852,-0.320981979370117,0.0235134959220886,-0.0109458863735199,0.322028147837015
3.642739852,-0.281133651733398,0.0067933201789856,-0.0000389814376831055,0.281215719431831
3.647739852,-0.213903427124023,0.00910431146621704,0.00121995806694031,0.21410056730509
3.652739852,-0.16447925567627,0.00774604082107544,0.00999951362609863,0.164964896171822
3.657739852,-0.12895679473877,-0.00392371416091919,0.00712528824806213,0.129213080509412
3.662739852,-0.0954370498657227,-0.00176680088043213,-0.00117519497871399,0.0954606366816267
3.667739852,-0.0980033874511719,-0.0213237404823303,0.011297732591629,0.100930692169301
3.672739852,-0.119722366333008,-0.0114381313323975,0.0211356431245804,0.122110569808849
3.677739852,-0.167004585266113,-0.00581347942352295,0.0414457470178604,0.172168748583425
3.682739852,-0.206768035888672,-0.00615406036376953,0.0237493067979813,0.20821844946499
3.687739852,-0.250889778137207,0.00500553846359253,0.0171917229890823,0.251527914014292
3.692739852,-0.286369323730469,0.00891715288162231,0.0242007970809937,0.287528405151066
3.697739852,-0.307258605957031,0.0114049911499023,0.00881907343864441,0.307596652800553
3.702739852,-0.292964935302734,0.0197194814682007,0.0381922721862793,0.296101268016638
3.707739852,-0.299846649169922,0.0214259624481201,0.0380367934703827,0.303008056894148
3.712739852,-0.274405479431152,0.0330545902252197,0.0324036329984665,0.278282174255372
3.717739852,-0.227513313293457,0.0216352939605713,0.0257048457860947,0.229980722599556
3.722739852,-0.189306259155273,0.0262390375137329,0.00749948620796204,0.191263141086813
3.727739852,-0.131163597106934,0.00705569982528687,-0.0025789886713028,0.131378549575725
3.732739852,-0.0679693222045898,0.012296199798584,-0.00774103403091431,0.0695050278634993
3.737739852,-0.0364980697631836,0.0141856670379639,0.00636465847492218,0.0396717925389387
3.742739852,-0.0299549102783203,0.00537830591201782,0.0273465365171433,0.0409152280178043
3.747739852,-0.071894645690918,0.0114572048187256,0.0264697372913361,0.0774645377805432
3.752739852,-0.117847442626953,0.0378818511962891,0.0451329797506332,0.13175750545962
3.757739852,-0.186795234680176,0.0378958582878113,0.0281679183244705,0.192670670828037
3.762739852,-0.244148254394531,0.0386283397674561,0.0375453531742096,0.250020343776387
3.767739852,-0.306700706481934,0.0516996383666992,0.0412306934595108,0.3137485395136
3.772739852,-0.356032371520996,0.0490821003913879,0.0375293344259262,0.36135377830064
3.777739852,-0.377889633178711,0.0522511601448059,0.0436294823884964,0.383971731165078
3.782739852,-0.36757755279541,0.0658413767814636,0.040015771985054,0.375565714919641
3.787739852,-0.306654930114746,0.0511627793312073,0.0522994995117188,0.315261976460451
3.792739852,-0.260222434997559,0.0517211556434631,0.0629777163267136,0.272684774732441
3.797739852,-0.199881553649902,0.0409309267997742,0.062468409538269,0.213378252051206
3.802739852,-0.127140998840332,0.0476598739624023,0.0527829676866531,0.145678889514026
3.807739852,-0.0480251312255859,0.0414433479309082,0.0554691553115845,0.084266194336387
3.812739852,0.01025390625,0.0227742791175842,0.0343028455972672,0.0424322471568425
3.817739852,0.0281000137329102,0.033265233039856,0.0365478098392487,0.0568500563327034
3.822739852,0.0452613830566406,0.0111332535743713,0.0442722737789154,0.0642851176938057
3.827739852,0.0482635498046875,0.0121155381202698,0.0509317368268967,0.0712053250810466
3.832739852,0.0548982620239258,0.0172612071037292,0.0325509011745453,0.0661160314235546
3.837739852,0.0492897033691406,0.0227140784263611,0.0410069823265076,0.0680218848349798
3.842739852,0.026066780090332,0.0253866314888001,0.045638307929039,0.0583679127025427
3.847739852,-0.0536251068115234,0.0321984887123108,0.0514494478702545,0.0809903725269747
3.852739852,-0.143558502197266,0.0361744165420532,0.0670448392629623,0.162519667846931
3.857739852,-0.225921630859375,0.0518626570701599,0.0748936384916306,0.243596747874539
3.862739852,-0.289024353027344,0.0626021027565002,0.0824561715126038,0.307006710240877
3.867739852,-0.326104164123535,0.0608927607536316,0.0769780427217484,0.340554655278973
3.872739852,-0.364267349243164,0.0452032685279846,0.0834603905677795,0.376430171484673
3.877739852,-0.36862850189209,0.0640559792518616,0.100097924470901,0.387310902723515
3.882739852,-0.385663032531738,0.0727492570877075,0.0916206389665604,0.403017084691246
3.887739852,-0.417998313903809,0.0788893699645996,0.0893799960613251,0.434666431664283
3.892739852,-0.423079490661621,0.0758748650550842,0.068506047129631,0.435254326869879
3.897739852,-0.416718482971191,0.0627758502960205,0.07050821185112,0.427278023503014
3.902739852,-0.382084846496582,0.0442709922790527,0.0618035346269608,0.389574675219109
3.907739852,-0.415494918823242,0.0743318200111389,0.0603945106267929,0.426390365683784
3.912739852,-0.449490547180176,0.0685082674026489,0.066078782081604,0.459457876358905
3.917739852,-0.416721343994141,0.062147855758667,0.0414494425058365,0.423364016892942
3.922739852,-0.399091720581055,0.0635042190551758,0.0199941396713257,0.404606911576348
3.927739852,-0.421136856079102,0.0577408075332642,0.0416183322668076,0.427109281078571
3.932739852,-0.482726097106934,0.0730794668197632,0.0410983562469482,0.489953230609774
3.937739852,-0.49690055847168,0.0837021470069885,0.0449993908405304,0.505906275508681
3.942739852,-0.521727561950684,0.0766518115997315,0.0258996188640594,0.527963956513917
3.947739852,-0.604612350463867,0.0867974758148193,0.026347428560257,0.611378837655511
3.952739852,-0.682668685913086,0.0974003672599793,0.0275571048259735,0.690132422289424
3.957739852,-0.74010181427002,0.114345550537109,0.0345971286296845,0.749681640246597
3.962739852,-0.768224716186523,0.105256080627441,0.0243212878704071,0.775783205613908
3.967739852,-0.805046081542969,0.121627330780029,0.0254315733909607,0.8145791342316
3.972739852,-0.825832366943359,0.129280567169189,0.0116947591304779,0.835972087291184
3.977739852,-0.776852607727051,0.111556708812714,-0.00579842925071716,0.784842974865176
3.982739852,-0.714146614074707,0.108975887298584,-0.00262600183486938,0.72241817965256
3.987739852,-0.632819175720215,0.110972821712494,-0.0114321410655975,0.642577442933837
3.992739852,-0.536355972290039,0.105690479278564,-0.0265429317951202,0.547314108761693
3.997739852,-0.428999900817871,0.0987362265586853,-0.030137836933136,0.441246015904733
4.002739852,-0.344560623168945,0.0983084440231323,-0.0542411506175995,0.362392985066133
4.007739852,-0.283306121826172,0.0818268060684204,-0.0629645586013794,0.301533614204803
4.012739852,-0.228933334350586,0.0798619985580444,-0.0878562331199646,0.257889759565191
4.017739852,-0.162435531616211,0.0827256441116333,-0.100745111703873,0.208274846434589
4.022739852,-0.128037452697754,0.0714715123176575,-0.11098113656044,0.183898284490502
4.027739852,-0.0703754425048828,0.072955846786499,-0.124855935573578,0.160823702034391
4.032739852,-0.0152788162231445,0.0608257055282593,-0.135208815336227,0.149045739364858
4.037739852,0.0453653335571289,0.0460661053657532,-0.139442682266235,0.153702183426002
4.042739852,0.125139236450195,0.0424646735191345,-0.151552259922028,0.20107502202884
4.047739852,0.208542823791504,0.0496511459350586,-0.153976827859879,0.263939783218425
4.052739852,0.300570487976074,0.0381988286972046,-0.17530232667923,0.350046674738049
4.057739852,0.418459892272949,0.0291674733161926,-0.20249992609024,0.465795709520056
4.062739852,0.555659294128418,0.00723892450332642,-0.201406478881836,0.59107886353247
4.067739852,0.743510246276856,-0.0152167677879334,-0.2291579246521,0.778172468525737
4.072739852,0.929222106933594,-0.0403346419334412,-0.217999845743179,0.955303375948215
4.077739852,1.10421657562256,-0.0469621419906616,-0.252385139465332,1.13366571231686
4.082739852,1.25752925872803,-0.0673127174377441,-0.241773366928101,1.28232803893609
4.087739852,1.36027526855469,-0.0860509872436523,-0.238659292459488,1.38373112869676
4.092739852,1.43809032440186,-0.0964637994766235,-0.234220206737518,1.4602288009048
4.097739852,1.49362373352051,-0.0933902263641357,-0.256579220294952,1.51837626693888
4.102739852,1.51689910888672,-0.108342230319977,-0.268550515174866,1.54429282346734
4.107739852,1.48215675354004,-0.100436270236969,-0.219440698623657,1.50167583274684
4.112739852,1.45247364044189,-0.109687685966492,-0.228018939495087,1.474348568487
4.117739852,1.42403125762939,-0.0943700075149536,-0.200822412967682,1.44121489118524
4.122739852,1.35864353179932,-0.0935887098312378,-0.178665012121201,1.37353277342198
4.127739852,1.27897644042969,-0.089469313621521,-0.157418727874756,1.29172990564584
4.132739852,1.24215316772461,-0.0896371603012085,-0.146864175796509,1.25401291808639
4.137739852,1.23362445831299,-0.0744248032569885,-0.140766888856888,1.24385838120194
4.142739852,1.20075225830078,-0.0816365480422974,-0.105757534503937,1.20816189639263
4.147739852,1.15814876556396,-0.0722886919975281,-0.0859730839729309,1.16358308226609
4.152739852,1.12103843688965,-0.0698807835578919,-0.0418802499771118,1.12399486486051
4.157739852,1.09884452819824,-0.0639906525611877,-0.0314196348190308,1.10115452785637
4.162739852,1.06422233581543,-0.066386342048645,-0.0362494289875031,1.0669069066985
4.167739852,1.02149105072021,-0.0605677366256714,-0.0056612491607666,1.02330077062587
4.172739852,0.963542938232422,-0.0563194155693054,-0.00417089462280273,0.96519649126465
4.177739852,0.878570556640625,-0.0456061363220215,0.0113808512687683,0.879827066213379
4.182739852,0.774293899536133,-0.041154682636261,0.0220500528812408,0.775700300111988
4.187739852,0.645871162414551,-0.028067946434021,0.0317959189414978,0.647262194568075
4.192739852,0.530429840087891,-0.0140202641487122,0.0394169986248016,0.532077139936544
4.197739852,0.377561569213867,0.00326383113861084,0.0560252666473389,0.381709603814005
4.202739852,0.218067169189453,0.0096808671951294,0.0523335337638855,0.224467833384133
4.207739852,0.073613166809082,0.0101897120475769,0.0583977401256561,0.094514679341666
4.212739852,-0.0460138320922852,0.0322746634483337,0.0632489025592804,0.0846129441602972
4.217739852,-0.147932052612305,0.0403921008110046,0.0848532319068909,0.175258337784713
4.222739852,-0.21253776550293,0.0476641058921814,0.0697066783905029,0.228698906354439
4.227739852,-0.262887954711914,0.0337540507316589,0.0644287765026093,0.272764513665235
4.232739852,-0.304012298583984,0.0377662777900696,0.0536918044090271,0.311018615663326
4.237739852,-0.373095512390137,0.03794926404953,0.069303572177887,0.381370414589511
4.242739852,-0.422871589660645,0.0538627505302429,0.0765133798122406,0.433100305387904
4.247739852,-0.449921607971191,0.0579186677932739,0.0690328478813171,0.458856796271925
4.252739852,-0.487869262695313,0.0519093871116638,0.0660132169723511,0.495044186682578
4.257739852,-0.522615432739258,0.0611836910247803,0.0597741305828095,0.529568957994696
4.262739852,-0.58067512512207,0.0599977970123291,0.0728843808174133,0.588298792748211
4.267739852,-0.609914779663086,0.0533522963523865,0.0860698819160461,0.618264126850803
4.272739852,-0.636009216308594,0.0615358352661133,0.0830404162406921,0.644352460211643
4.277739852,-0.672405242919922,0.0731319785118103,0.0982982665300369,0.683476148954783
4.282739852,-0.726798057556152,0.0552331209182739,0.109838262200356,0.737123163356683
4.287739852,-0.817461013793945,0.0756243467330933,0.115076944231987,0.82897783684825
4.292739852,-0.904679298400879,0.078965961933136,0.135438144207001,0.918163246381257
4.297739852,-0.964371681213379,0.0930852890014648,0.123814567923546,0.976733155874674
4.302739852,-1.02358913421631,0.0914990305900574,0.130896538496017,1.03597330664204
4.307739852,-1.06160449981689,0.103957295417786,0.124033659696579,1.07386944366612
4.312739852,-1.08253192901611,0.109435558319092,0.142920881509781,1.09739596187315
4.317739852,-1.09929943084717,0.0970381498336792,0.15224626660347,1.11402628643975
4.322739852,-1.08319187164307,0.101857900619507,0.197094693779945,1.10567896833956
4.327739852,-1.05623626708984,0.0901221632957459,0.238893389701843,1.08665868968882
4.332739852,-0.991788864135742,0.0760638117790222,0.273271411657333,1.03155616372315
4.337739852,-0.925712585449219,0.0769801139831543,0.292312532663345,0.973815354962118
4.342739852,-0.867989540100098,0.0723094344139099,0.294762939214706,0.919521444210482
4.347739852,-0.796669006347656,0.0644827485084534,0.260691463947296,0.840713726487888
4.352739852,-0.742073059082031,0.0594983696937561,0.24632316827774,0.784147680122796
4.357739852,-0.688397407531738,0.0657793283462524,0.22838781774044,0.728271176160599
4.362739852,-0.64546012878418,0.0610208511352539,0.203594893217087,0.679553679018396
4.367739852,-0.594894409179688,0.0655719041824341,0.171995475888252,0.622721026156485
4.372739852,-0.557403564453125,0.0576549172401428,0.153298109769821,0.580967411827907
4.377739852,-0.509382247924805,0.0518075823783875,0.16731733083725,0.538655167330011
4.382739852,-0.481832504272461,0.0475261211395264,0.1743144094944,0.514593827908401
4.387739852,-0.430826187133789,0.0357188582420349,0.171727955341339,0.465163982913628
4.392739852,-0.367063522338867,0.0194863677024841,0.167468577623367,0.403932014637669
4.397739852,-0.286078453063965,0.0299537181854248,0.16829714179039,0.333259710249255
4.402739852,-0.197558403015137,0.00474637746810913,0.175206527113915,0.264100696410062
4.407739852,-0.11766242980957,0.00168150663375855,0.164186328649521,0.202001052889979
4.412739852,-0.016474723815918,-0.0133818984031677,0.174916610121727,0.176199637417787
4.417739852,0.106367111206055,-0.019909143447876,0.172101855278015,0.203296298365918
4.422739852,0.235091209411621,-0.0425944924354553,0.175902843475342,0.296688351424796
4.427739852,0.30967903137207,-0.0430548191070557,0.168543383479118,0.355192471815598
4.432739852,0.391947746276855,-0.0702908635139465,0.162699460983276,0.430156896851941
4.437739852,0.478507995605469,-0.0664159655570984,0.16867496073246,0.511695441368537
4.442739852,0.567608833312988,-0.0725627541542053,0.161273688077927,0.594520263247294
4.447739852,0.6322021484375,-0.0807814598083496,0.152195155620575,0.65526221173827
4.452739852,0.673411369323731,-0.0855833888053894,0.152913674712181,0.695837610860364
4.457739852,0.696050643920898,-0.0778051614761353,0.159427180886269,0.718301585728702
4.462739852,0.754036903381348,-0.104730784893036,0.136034578084946,0.773334077485269
4.467739852,0.79798698425293,-0.105704307556152,0.119227081537247,0.813739346870299
4.472739852,0.84652042388916,-0.104092061519623,0.102107584476471,0.858986579720841
4.477739852,0.891990661621094,-0.103587925434113,0.0928727239370346,0.902775244214453
4.482739852,0.906218528747559,-0.0912356972694397,0.0763223618268967,0.913991836515221
4.487739852,0.937357902526856,-0.0950405597686768,0.0632838159799576,0.944286707941859
4.492739852,0.952418327331543,-0.107599914073944,0.043526902794838,0.959464956636065
4.497739852,0.970406532287598,-0.10961127281189,0.0193092077970505,0.976768301358942
4.502739852,0.974173545837402,-0.10702919960022,0.0206402987241745,0.98025270665676
4.507739852,0.962288856506348,-0.0981833338737488,0.00186926126480103,0.967286567954158
4.512739852,0.950940132141113,-0.0921398401260376,-0.010812908411026,0.955454762949725
4.517739852,0.92317008972168,-0.0877795219421387,-0.015775203704834,0.927468121328735
4.522739852,0.879515647888184,-0.0892351269721985,-0.0236034393310547,0.88434597591337
4.527739852,0.818386077880859,-0.0706879496574402,-0.0110724568367004,0.821507856320553
4.532739852,0.757209777832031,-0.0672571659088135,0.00747066736221314,0.760227587556093
4.537739852,0.701920509338379,-0.0658271312713623,0.00772812962532044,0.705042790636691
4.542739852,0.632001876831055,-0.0466644167900085,-0.00854702293872833,0.633779923722298
4.547739852,0.572502136230469,-0.0427799224853516,0.0176198333501816,0.574368589220886
4.552739852,0.50726318359375,-0.0481336116790772,0.0425153970718384,0.511312371247865
4.557739852,0.463257789611816,-0.0369285345077515,0.0537561923265457,0.467826062239338
4.562739852,0.426546096801758,-0.0288677215576172,0.0545879751443863,0.430992766847782
4.567739852,0.3880615234375,-0.0321178436279297,0.0686006098985672,0.395385059821937
4.572739852,0.345479965209961,-0.0450623035430908,0.0731422305107117,0.35600112843384
4.577739852,0.312519073486328,-0.0252932906150818,0.0898051857948303,0.326148575404732
4.582739852,0.274577140808105,-0.0246034860610962,0.102790370583534,0.294217263370818
4.587739852,0.257258415222168,-0.0302891731262207,0.0944386646151543,0.275713597027033
4.592739852,0.213796615600586,-0.0263649225234985,0.0895536243915558,0.233289420299333
4.597739852,0.170060157775879,-0.0199783444404602,0.108763866126537,0.202852582148046
4.602739852,0.103017807006836,-0.0153773427009583,0.0973880439996719,0.14259580058025
4.607739852,0.055445671081543,-0.0149707198143005,0.0946518629789352,0.110712781822263
4.612739852,-0.00482177734375,-0.00819450616836548,0.0991489738225937,0.0996038075485543
4.617739852,-0.0678205490112305,-0.0103902816772461,0.0936733782291412,0.116113249073381
4.622739852,-0.119671821594238,-0.0111345648765564,0.0815610736608505,0.145249895543453
4.627739852,-0.181099891662598,0.00453734397888184,0.0580828338861465,0.190240305516031
4.632739852,-0.213484764099121,0.00928103923797607,0.0443560779094696,0.218241480565233
4.637739852,-0.23997974395752,0.0172467827796936,0.0282204896211624,0.242248065132881
4.642739852,-0.27117919921875,0.0129557251930237,0.0437168478965759,0.274985766348391
4.647739852,-0.28310489654541,0.0146509408950806,0.0426533222198486,0.286674621153476
4.652739852,-0.306214332580566,0.0152741670608521,0.0416584610939026,0.309412257413757
4.657739852,-0.331162452697754,0.0177958011627197,0.0578249394893646,0.336643705188087
4.662739852,-0.350541114807129,0.0285272002220154,0.0541433542966843,0.355843191781476
4.667739852,-0.371072769165039,0.0241432189941406,0.0524260103702545,0.375534794130386
4.672739852,-0.401432037353516,0.0281295776367188,0.0409757941961288,0.404497181030743
4.677739852,-0.436069488525391,0.0379599928855896,0.038327619433403,0.439393407203729
4.682739852,-0.477178573608398,0.0315688252449036,0.0490655452013016,0.480732159902154
4.687739852,-0.514193534851074,0.0356464385986328,0.0408915132284164,0.517047169725857
4.692739852,-0.563167572021484,0.0325145721435547,0.0528553128242493,0.566576204646826
4.697739852,-0.601682662963867,0.0382189750671387,0.0588474646210671,0.605760465084014
4.702739852,-0.659307479858398,0.0638011693954468,0.0515423268079758,0.664389609842176
4.707739852,-0.68809700012207,0.0571082234382629,0.0473175644874573,0.692082208028997
4.712739852,-0.722140312194824,0.0505334734916687,0.0575110167264938,0.726187151831321
4.717739852,-0.734432220458984,0.082432746887207,0.0640450939536095,0.741813735561166
4.722739852,-0.761968612670898,0.0751810669898987,0.0573095008730888,0.767810353159995
4.727739852,-0.707717895507813,0.0687918066978455,0.0617078021168709,0.713725987429949
4.732739852,-0.666543960571289,0.0708991885185242,0.0527064800262451,0.672373050726606
4.737739852,-0.61661434173584,0.0733524560928345,0.0413588881492615,0.622337839825056
4.742739852,-0.564494132995606,0.0579285621643066,0.0152032375335693,0.567662296557017
4.747739852,-0.498496055603027,0.0551105737686157,0.0191661864519119,0.501899228427373
4.752739852,-0.403322219848633,0.0556144118309021,0.00408679246902466,0.407159032442621
4.757739852,-0.326997756958008,0.0442246198654175,-0.0281568467617035,0.33117390911328
4.762739852,-0.276272773742676,0.0431414246559143,-0.0411418825387955,0.28263135447372
4.767739852,-0.227309226989746,0.0356369614601135,-0.0467996299266815,0.2347971104125
4.772739852,-0.185717582702637,0.0336233377456665,-0.0447571128606796,0.193970999166611
4.777739852,-0.155295372009277,0.0293734073638916,-0.0464427173137665,0.164731222356757
4.782739852,-0.127913475036621,0.0221154093742371,-0.0778477340936661,0.151364520714904
4.787739852,-0.131187438964844,0.0168452262878418,-0.0447038412094116,0.139614967713779
4.792739852,-0.0989246368408203,0.0141448974609375,-0.0520797818899155,0.112687468602191
4.797739852,-0.0567646026611328,0.0051613450050354,-0.0533962398767471,0.0781026121875089
4.802739852,-0.00507736206054688,-0.0145946741104126,-0.0451242476701736,0.0476967697615069
4.807739852,0.080164909362793,-0.0334590077400208,-0.0280996561050415,0.091299006376374
4.812739852,0.166298866271973,-0.051941454410553,-0.0173792988061905,0.17508645760487
4.817739852,0.289498329162598,-0.0596809387207031,-0.00474832952022553,0.295624159479148
4.822739852,0.40987491607666,-0.0746016502380371,-0.0351825654506683,0.418091695634795
4.827739852,0.534799575805664,-0.0902110934257507,-0.038161039352417,0.543695588158893
4.832739852,0.645243644714356,-0.0915700793266296,-0.0393191576004028,0.652893893849955
4.837739852,0.735113143920898,-0.106199562549591,-0.0341493636369705,0.743529327254684
4.842739852,0.793210983276367,-0.110161423683167,-0.0523547232151032,0.802533625651345
4.847739852,0.851823806762695,-0.12253737449646,-0.0289388597011566,0.861078778926167
4.852739852,0.87174129486084,-0.125104129314423,-0.0543573647737503,0.882348373060392
4.857739852,0.858921051025391,-0.117781460285187,-0.0607591718435288,0.869085451060242
4.862739852,0.842501640319824,-0.121991097927094,-0.0781482458114624,0.854867235445634
4.867739852,0.82114315032959,-0.128092288970947,-0.0998561382293701,0.837051346196339
4.872739852,0.752982139587402,-0.108238279819489,-0.0951794385910034,0.76665295491924
4.877739852,0.71307373046875,-0.100036442279816,-0.108672022819519,0.728210850930078
4.882739852,0.669296264648438,-0.10273939371109,-0.110545590519905,0.686099993059225
4.887739852,0.623597145080566,-0.111980199813843,-0.0883978009223938,0.639708633450336
4.892739852,0.603449821472168,-0.105265319347382,-0.0685802549123764,0.616389264877272
4.897739852,0.586145401000977,-0.103184759616852,-0.0648712068796158,0.598683388122471
4.902739852,0.554521560668945,-0.103153347969055,-0.0603178888559341,0.567250405165113
4.907739852,0.523232460021973,-0.0990086197853088,-0.0362807363271713,0.533752007809693
4.912739852,0.49301815032959,-0.0961825251579285,-0.0370669513940811,0.503678402937645
4.917739852,0.452828407287598,-0.0913332104682922,-0.014805942773819,0.462184527783535
4.922739852,0.376150131225586,-0.0776238441467285,-0.00332103669643402,0.384090369165747
4.927739852,0.290301322937012,-0.0798636674880981,0.00462749600410461,0.301122030417731
4.932739852,0.190021514892578,-0.0610261559486389,0.0222223252058029,0.20081384307236
4.937739852,0.107854843139648,-0.0525661110877991,0.0246538072824478,0.122489482965245
4.942739852,0.0298786163330078,-0.0531204342842102,0.0395329296588898,0.0726454732239587
4.947739852,-0.0569934844970703,-0.0435557961463928,0.0471948087215424,0.0858645131781861
4.952739852,-0.141562461853027,-0.0334646701812744,0.0666310787200928,0.159998485641691
4.957739852,-0.209494590759277,-0.0226956605911255,0.0685631856322289,0.221594194398464
4.962739852,-0.230754852294922,-0.0270848870277405,0.0539689064025879,0.238524706940912
4.967739852,-0.250003814697266,-0.0258479714393616,0.0607570707798004,0.258575804437415
4.972739852,-0.262885093688965,-0.0262165069580078,0.0415261387825012,0.267432791413317
4.977739852,-0.265547752380371,-0.0320913195610046,0.0422553569078445,0.27079692903141
4.982739852,-0.251806259155273,-0.0315154194831848,0.0486758202314377,0.25839688328263
4.987739852,-0.252346038818359,-0.0272076725959778,0.0341566950082779,0.256096584454567
4.992739852,-0.233187675476074,-0.0242313742637634,0.0212596356868744,0.235405232741722
4.997739852,-0.194801330566406,-0.0303159952163696,0.0244544595479965,0.198657087837776
5.002739852,-0.1658935546875,-0.0287284255027771,0.0115297436714172,0.16875701143316
5.007739852,-0.125110626220703,-0.0281617641448975,-0.00212451815605164,0.128258595542306
5.012739852,-0.0888509750366211,-0.0387537479400635,-0.000131487846374512,0.0969348545849943
5.017739852,-0.064666748046875,-0.0554733872413635,0.00227682292461395,0.085230680612197
5.022739852,-0.0537319183349609,-0.0539926886558533,0.0143444538116455,0.0775118883230002
5.027739852,-0.0403146743774414,-0.0535148978233337,-0.0111618936061859,0.0679242602320908
5.032739852,-0.0409488677978516,-0.0484696626663208,-0.00814981758594513,0.063972943496427
5.037739852,-0.0500383377075195,-0.0456702709197998,-0.00454442203044891,0.0678989002709949
5.042739852,-0.0527467727661133,-0.0398167371749878,-0.00787480175495148,0.0665552935474094
5.047739852,-0.0685882568359375,-0.0325031876564026,-0.0249202847480774,0.0798863366011054
5.052739852,-0.0851984024047852,-0.0396376252174377,-0.010825052857399,0.0945890631868782
5.057739852,-0.085261344909668,-0.037161648273468,0.00396062433719635,0.0930922745631812
5.062739852,-0.107236862182617,-0.0296237468719482,0.0062248557806015,0.111427374639252
5.067739852,-0.133419036865234,-0.0170084834098816,0.00690999627113342,0.134676189263054
5.072739852,-0.168402671813965,-0.0208490490913391,0.0104423761367798,0.170009370157874
5.077739852,-0.211161613464355,-0.0150080919265747,0.0136332511901855,0.212132824810686
5.082739852,-0.244904518127441,-0.00512844324111939,0.00949388742446899,0.245142117612907
5.087739852,-0.282733917236328,0.00715184211730957,0.0244049429893494,0.283875356527796
5.092739852,-0.320236206054688,0.00979852676391602,0.0204871147871017,0.321040434629882
5.097739852,-0.361030578613281,0.0132330060005188,0.0230458527803421,0.362007323782301
5.102739852,-0.398927688598633,0.0218158364295959,0.0279140621423721,0.400497723233302
5.107739852,-0.442328453063965,0.0377953052520752,0.0106619298458099,0.444068263037446
5.112739852,-0.450505256652832,0.0430510640144348,0.0315350592136383,0.453654979410804
5.117739852,-0.458526611328125,0.0383581519126892,0.0207415223121643,0.460595497005818
5.122739852,-0.451784133911133,0.05487459897995,-0.00127273797988892,0.455106300911126
5.127739852,-0.446735382080078,0.0675687193870544,-0.00694070756435394,0.451869679070563
5.132739852,-0.453464508056641,0.0687773823738098,-0.016718715429306,0.458955230756607
5.137739852,-0.450345039367676,0.0652095675468445,-0.0131654292345047,0.455232106413474
5.142739852,-0.407936096191406,0.0714986920356751,-0.0169602930545807,0.41450159599113
5.147739852,-0.369106292724609,0.0662698745727539,-0.024715393781662,0.375821769319682
5.152739852,-0.304411888122559,0.0582910180091858,-0.0156936347484589,0.31033970191148
5.157739852,-0.235091209411621,0.0479736328125,-0.015280157327652,0.240422189898946
5.162739852,-0.152350425720215,0.0292989611625671,-0.0109935700893402,0.15553115419634
5.167739852,-0.0620183944702148,0.0267030000686646,-0.000292390584945679,0.067523454870026
5.172739852,0.0262470245361328,0.0116281509399414,0.010378286242485,0.0305258745429737
5.177739852,0.114425659179688,-0.00129097700119019,0.00395704805850983,0.114501337676295
5.182739852,0.205279350280762,0.000293612480163574,0.000329986214637756,0.205279825484342
5.187739852,0.285125732421875,-0.00302362442016602,0.00411719083786011,0.285171486748132
5.192739852,0.361074447631836,-0.0392146110534668,0.0175608545541763,0.363621954872616
5.197739852,0.442697525024414,-0.0311321616172791,0.00763104856014252,0.443856444193202
5.202739852,0.490298271179199,-0.045466959476471,0.00610917806625366,0.492439804627928
5.207739852,0.518387794494629,-0.0444667339324951,-0.00337721407413483,0.520302413489051
5.212739852,0.536779403686523,-0.0441648960113525,-0.0155886858701706,0.538818776017422
5.217739852,0.510656356811523,-0.0486425757408142,-0.0164008885622025,0.513229971915465
5.222739852,0.496028900146484,-0.0410997271537781,-0.0187321603298187,0.49808106888665
5.227739852,0.432037353515625,-0.0431299805641174,-0.0230583250522614,0.434796683992026
5.232739852,0.36635684967041,-0.0424207448959351,-0.0284155309200287,0.369897693011758
5.237739852,0.280760765075684,-0.0345847010612488,-0.0258798003196716,0.284064205450045
5.242739852,0.176477432250977,-0.0271906852722168,-0.026738166809082,0.180550677162344
5.247739852,0.0888938903808594,-0.0158202648162842,-0.046544760465622,0.101581589142441
5.252739852,-0.00403594970703125,-0.0262334942817688,-0.0670080184936523,0.0720732936302687
5.257739852,-0.0926675796508789,-0.000456571578979492,-0.0734911859035492,0.118272749107598
5.262739852,-0.16066837310791,0.0145273804664612,-0.0649619996547699,0.173912139597862
5.267739852,-0.199912071228027,0.0240527987480164,-0.0690321028232575,0.212858649273393
5.272739852,-0.232954025268555,0.0208833813667297,-0.0810028910636902,0.247518003116555
5.277739852,-0.244413375854492,0.0079604983329773,-0.0996497571468353,0.264066926989583
5.282739852,-0.237382888793945,0.0190240740776062,-0.111047595739365,0.262762477926667
5.287739852,-0.213879585266113,0.00444817543029785,-0.0997586250305176,0.23604246763293
5.292739852,-0.172697067260742,0.00332844257354736,-0.106574058532715,0.202961537052125
5.297739852,-0.101951599121094,-0.0144200921058655,-0.107939928770065,0.149174715828711
5.302739852,-0.0181407928466797,-0.018520712852478,-0.117740839719772,0.120561231362272
5.307739852,0.0678167343139648,-0.0391589403152466,-0.131103962659836,0.152711430759899
5.312739852,0.173307418823242,-0.0645394325256348,-0.146131545305252,0.235701566187428
5.317739852,0.291014671325684,-0.0743162035942078,-0.14499032497406,0.33351856227133
5.322739852,0.392598152160645,-0.0828579068183899,-0.172489672899246,0.436750992052871
5.327739852,0.486872673034668,-0.0973284244537354,-0.188959747552872,0.531247219427843
5.332739852,0.559377670288086,-0.114055156707764,-0.201529502868652,0.605413988370805
5.337739852,0.608168601989746,-0.110739886760712,-0.207559585571289,0.652083853908731
5.342739852,0.635327339172363,-0.110481858253479,-0.222727656364441,0.682242389340162
5.347739852,0.639584541320801,-0.113599896430969,-0.235690742731094,0.691030714349805
5.352739852,0.620391845703125,-0.114300131797791,-0.242164582014084,0.675717579411679
5.357739852,0.570159912109375,-0.119042038917542,-0.240441530942917,0.630131305529561
5.362739852,0.512722969055176,-0.107539296150208,-0.243241459131241,0.577594971111705
5.367739852,0.433835983276367,-0.0985442996025085,-0.235404193401337,0.503328693440435
5.372739852,0.364446640014648,-0.0747429728507996,-0.259936481714249,0.453844510746273
5.377739852,0.282586097717285,-0.0790608525276184,-0.263509035110474,0.394388808931402
5.382739852,0.216899871826172,-0.0678159594535828,-0.243102967739105,0.332781627615438
5.387739852,0.13400936126709,-0.0669031143188477,-0.24613618850708,0.288127678131704
5.392739852,0.0441141128540039,-0.049687385559082,-0.259570181369782,0.267939489984089
5.397739852,-0.0565519332885742,-0.0377067923545837,-0.244029074907303,0.25331820453426
5.402739852,-0.179686546325684,-0.017867386341095,-0.250006347894669,0.308398560977097
5.407739852,-0.29350757598877,-0.00793802738189697,-0.24779000878334,0.384199945203493
5.412739852,-0.365169525146484,-0.00385040044784546,-0.232114404439926,0.432713189569973
5.417739852,-0.420262336730957,0.00835150480270386,-0.248853087425232,0.488485453650469
5.422739852,-0.455669403076172,0.0171410441398621,-0.249596476554871,0.519833455447613
5.427739852,-0.476284027099609,0.022777795791626,-0.253103852272034,0.539839663683848
5.432739852,-0.485404968261719,0.00864601135253906,-0.261044800281525,0.551214227392118
5.437739852,-0.445199012756348,0.00575315952301025,-0.26555335521698,0.518414741563856
5.442739852,-0.417727470397949,-0.00521951913833618,-0.297481268644333,0.512853378753954
5.447739852,-0.348764419555664,-0.00792157649993897,-0.332382649183273,0.481848105942458
5.452739852,-0.281068801879883,-0.0315592885017395,-0.365670114755631,0.462288105953771
5.457739852,-0.177987098693848,-0.0629991292953491,-0.435773313045502,0.474917548587203
5.462739852,0.0273733139038086,-0.103591680526733,-0.46102300286293,0.473310409517034
5.467739852,0.0685262680053711,-0.109244704246521,-0.495486289262772,0.511993083605672
5.472739852,-0.184545516967773,-0.0448685884475708,-0.497158288955689,0.532199776718788
5.477739852,-0.321778297424316,0.00066143274307251,-0.473981320858002,0.572887425860318
5.482739852,-0.263373374938965,-0.0342350602149963,-0.417770862579346,0.49504552073012
5.487739852,-0.0626955032348633,-0.0875768661499023,-0.334895074367523,0.351788493908115
5.492739852,-0.0499820709228516,-0.098906397819519,-0.308739423751831,0.328025478769535
5.497739852,-0.0655002593994141,-0.0979995131492615,-0.360370188951492,0.379158095843696
5.502739852,-0.0764179229736328,-0.100705027580261,-0.416421681642532,0.435187567002482
5.507739852,-0.0524454116821289,-0.0895726084709168,-0.422535330057144,0.435097550603646
5.512739852,-0.00106525421142578,-0.112358868122101,-0.391213655471802,0.407030434046183
5.517739852,0.0599498748779297,-0.113618314266205,-0.354471415281296,0.377031952341043
5.522739852,0.116781234741211,-0.121540427207947,-0.350399076938629,0.388830869856054
5.527739852,0.16801929473877,-0.134835124015808,-0.352758705615997,0.41333968894935
5.532739852,0.214040756225586,-0.142642021179199,-0.367382407188416,0.448475221883286
5.537739852,0.256179809570313,-0.147010564804077,-0.391784131526947,0.490647538169529
5.542739852,0.287641525268555,-0.151662409305573,-0.377564430236816,0.498291112137517
5.547739852,0.291840553283691,-0.142570078372955,-0.372377038002014,0.494127305680788
5.552739852,0.279440879821777,-0.152940034866333,-0.337354272603989,0.463988970585132
5.557739852,0.247287750244141,-0.146437406539917,-0.312967717647553,0.424904621938222
5.562739852,0.181079864501953,-0.153147637844086,-0.308775424957275,0.389340955157321
5.567739852,0.101800918579102,-0.135079324245453,-0.3180892765522,0.360264678701173
5.572739852,-0.0106744766235352,-0.138279616832733,-0.333636730909348,0.36131518802075
5.577739852,-0.117453575134277,-0.118363320827484,-0.281884878873825,0.327512294375103
5.582739852,-0.216262817382813,-0.0953502655029297,-0.245229184627533,0.340585719470026
5.587739852,-0.280340194702148,-0.0914668440818787,-0.224446266889572,0.370584585557201
5.592739852,-0.328984260559082,-0.0946632027626038,-0.210208117961884,0.401720323745211
5.597739852,-0.367573738098145,-0.0908966660499573,-0.202395081520081,0.429344181120416
5.602739852,-0.407487869262695,-0.0935890674591065,-0.173824518918991,0.45279160827199
5.607739852,-0.424166679382324,-0.0719879865646362,-0.181940376758575,0.467120908120061
5.612739852,-0.411352157592773,-0.0903645753860474,-0.163830995559692,0.451903694548972
5.617739852,-0.40050220489502,-0.0857347846031189,-0.150333315134048,0.43629413823235
5.622739852,-0.374255180358887,-0.0977276563644409,-0.144550055265427,0.412931414790867
5.627739852,-0.349425315856934,-0.0959745645523071,-0.12429067492485,0.383089206681678
5.632739852,-0.33454704284668,-0.0900892615318298,-0.101769506931305,0.361102245163125
5.637739852,-0.313211441040039,-0.102519273757935,-0.122868865728378,0.351722001665535
5.642739852,-0.313063621520996,-0.0981962084770203,-0.113299518823624,0.34711396895655
5.647739852,-0.316261291503906,-0.0990546941757202,-0.11380398273468,0.350406026529567
5.652739852,-0.332483291625977,-0.108402073383331,-0.101612210273743,0.364171923685729
5.657739852,-0.346049308776855,-0.10710072517395,-0.100432187318802,0.375908650721641
5.662739852,-0.35942554473877,-0.0874066352844238,-0.0852822363376617,0.379604665325992
5.667739852,-0.33781909942627,-0.10344260931015,-0.0851038098335266,0.363407176327393
5.672739852,-0.330430030822754,-0.112338483333588,-0.0865890681743622,0.359585326222471
5.677739852,-0.292092323303223,-0.118924736976624,-0.0758429169654846,0.324365791123951
5.682739852,-0.234938621520996,-0.121566772460938,-0.0809952020645142,0.276649342681718
5.687739852,-0.171207427978516,-0.131159067153931,-0.059250682592392,0.223663424992492
5.692739852,-0.0745229721069336,-0.14474356174469,-0.0359870493412018,0.16673163994418
5.697739852,0.00454425811767578,-0.146275997161865,-0.0587019622325897,0.157680810492255
5.702739852,0.0863199234008789,-0.16626638174057,-0.0564951002597809,0.195671498247438
5.707739852,0.180082321166992,-0.172552049160004,-0.0482531785964966,0.254031929707416
5.712739852,0.252570152282715,-0.189685821533203,-0.0439192354679108,0.318906399996811
5.717739852,0.314687728881836,-0.183611989021301,-0.0401902496814728,0.366547384918547
5.722739852,0.354575157165527,-0.190950810909271,-0.0208785831928253,0.403263771621015
5.727739852,0.390305519104004,-0.183686316013336,-0.0116623342037201,0.431526442958802
5.732739852,0.400039672851563,-0.207063257694244,-0.00528249144554138,0.450482893413291
5.737739852,0.413324356079102,-0.206076920032501,-0.000352740287780762,0.461849374497786
5.742739852,0.38881778717041,-0.204755902290344,0.0259921848773956,0.440204321670663
5.747739852,0.374667167663574,-0.198296070098877,0.0398549139499664,0.425776035149541
5.752739852,0.341583251953125,-0.20273768901825,0.0576770603656769,0.401383023875896
5.757739852,0.324836730957031,-0.192760288715363,0.0496669113636017,0.380975370291677
5.762739852,0.33436393737793,-0.195596158504486,0.0671151578426361,0.393143159997508
5.767739852,0.333621978759766,-0.19868803024292,0.0880551934242249,0.398163628628194
5.772739852,0.341396331787109,-0.192326486110687,0.0973745882511139,0.403760749769529
5.777739852,0.336117744445801,-0.18694269657135,0.123798161745071,0.404040461815595
5.782739852,0.322826385498047,-0.171861946582794,0.12047815322876,0.385056345568247
5.787739852,0.315994262695313,-0.177830934524536,0.133718058466911,0.386466990169127
5.792739852,0.288152694702148,-0.17046844959259,0.146433144807816,0.365423225409822
5.797739852,0.251988410949707,-0.157178103923798,0.160542413592339,0.337604772134655
5.802739852,0.199963569641113,-0.145348310470581,0.180010214447975,0.305802612555673
5.807739852,0.123538970947266,-0.132417976856232,0.174181863665581,0.25126822235894
5.812739852,0.0553855895996094,-0.127193987369537,0.194806769490242,0.239155914410417
5.817739852,-0.00639057159423828,-0.110335826873779,0.195057094097137,0.224192114167384
5.822739852,-0.0507440567016602,-0.0988876819610596,0.214584022760391,0.241660993456133
5.827739852,-0.0670070648193359,-0.097970187664032,0.222339361906052,0.252037489789552
5.832739852,-0.0978860855102539,-0.0907059907913208,0.241084024310112,0.27555538332523
5.837739852,-0.13121223449707,-0.0868915319442749,0.246790513396263,0.292698387948633
5.842739852,-0.115719795227051,-0.0836467146873474,0.250248104333878,0.288117957802141
5.847739852,-0.0976419448852539,-0.0857710242271423,0.25350832939148,0.284880836612094
5.852739852,-0.0607738494873047,-0.0867381095886231,0.256413161754608,0.277425070888535
5.857739852,-0.00572299957275391,-0.086196780204773,0.260570287704468,0.274516871022837
5.862739852,0.0578403472900391,-0.09400874376297,0.275179624557495,0.296491105178769
5.867739852,0.0914478302001953,-0.0891914963722229,0.267981737852097,0.296870410273018
5.872739852,0.15114688873291,-0.0874797701835632,0.283783137798309,0.333213087173451
5.877739852,0.153927803039551,-0.0817258358001709,0.284870326519012,0.3339520679931
5.882739852,0.150426864624023,-0.0907596945762634,0.271084725856781,0.323036363824627
5.887739852,0.360514640808105,-0.158298015594482,0.244648262858391,0.463553492595813
5.892739852,0.382098197937012,-0.16593873500824,0.18403172492981,0.455414506162779
5.897739852,0.228481292724609,-0.124608159065247,0.127560421824455,0.289831943799802
5.902739852,0.269626617431641,-0.165647149085999,0.168171048164368,0.358355957490104
5.907739852,0.363118171691895,-0.169541120529175,0.237248629331589,0.465710114001049
5.912739852,0.22965145111084,-0.119788646697998,0.308853209018707,0.403087352314862
5.917739852,0.0820960998535156,-0.0777354240417481,0.349184364080429,0.367031723261576
5.922739852,-0.0166549682617188,-0.0480049848556519,0.411290258169174,0.414417112344141
5.927739852,-0.0517454147338867,-0.0189834833145142,0.434363782405853,0.437846840859511
5.932739852,-0.0349655151367188,-0.019302248954773,0.407483339309692,0.409435997291965
5.937739852,0.0461902618408203,-0.040910005569458,0.33648282289505,0.342093348295518
5.942739852,0.115917205810547,-0.0722861289978027,0.325104385614395,0.352639964544754
5.947739852,0.12855052947998,-0.0827564001083374,0.336673140525818,0.369760279018706
5.952739852,0.0946245193481445,-0.077471137046814,0.368116825819016,0.387898922643852
5.957739852,0.0151567459106445,-0.029234766960144,0.377041429281235,0.378476733684186
5.962739852,-0.0587253570556641,-0.0208045244216919,0.394960880279541,0.399844460695553
5.967739852,-0.0957717895507813,-0.0100200176239014,0.403495788574219,0.414827057728969
5.972739852,-0.100143432617188,-0.00255095958709717,0.397326052188873,0.409759937328143
5.977739852,0.0226144790649414,-0.0261561870574951,0.38707759976387,0.388618873735855
5.982739852,0.244611740112305,-0.191668748855591,0.327065616846085,0.451158209956936
5.987739852,0.284085273742676,-0.163114666938782,0.274837374687195,0.427605448811109
5.992739852,0.303277015686035,-0.184747934341431,0.274777054786682,0.449011333180017
5.997739852,0.26368236541748,-0.183518886566162,0.361256748437881,0.483439768586069
6.002739852,0.135804176330566,-0.166472792625427,0.51104736328125,0.554369346654421
6.007739852,-0.000494956970214844,-0.132620871067047,0.616393327713013,0.630499226703813
6.012739852,-0.0949649810791016,-0.110247194766998,0.60995352268219,0.627069447045349
6.017739852,-0.165017127990723,-0.0971455574035645,0.5984126329422,0.628303741130332
6.022739852,-0.188174247741699,-0.091717004776001,0.675543367862701,0.707234330573337
6.027739852,-0.211384773254395,-0.0984422564506531,0.780357599258423,0.814452198068909
6.032739852,-0.21314525604248,-0.0919089913368225,0.897954225540161,0.927469651270271
6.037739852,-0.157681465148926,-0.0979591608047485,1.09509682655334,1.11071891186037
6.042739852,-0.0969619750976563,-0.129657983779907,1.19813597202301,1.20902548559914
6.047739852,0.0119695663452148,-0.161904394626617,1.24768424034119,1.2582019977387
6.052739852,0.0766983032226563,-0.186070680618286,1.23549032211304,1.25177524497729
6.057739852,0.138744354248047,-0.205972731113434,1.21040630340576,1.2356205651908
6.062739852,0.142733573913574,-0.193445265293121,1.17844223976135,1.20271362187356
6.067739852,0.0799522399902344,-0.163037657737732,1.10398685932159,1.11882108671352
6.072739852,0.0302877426147461,-0.160641491413116,1.00516581535339,1.01837191264841
6.077739852,-0.0473384857177734,-0.128309786319733,0.872061431407929,0.882720495765626
6.082739852,-0.126394271850586,-0.101546883583069,0.735210657119751,0.752875814370823
6.087739852,-0.227375030517578,-0.0799313187599182,0.588541090488434,0.635978801073498
6.092739852,-0.372064590454102,-0.0385410785675049,0.52573561668396,0.645225086971197
6.097739852,-0.454355239868164,0.0133794546127319,0.490039646625519,0.66839849570915
6.102739852,-0.589959144592285,0.0746739506721497,0.444853007793427,0.742645399729848
6.107739852,-0.686999320983887,0.121006488800049,0.395502388477325,0.801893245173762
6.112739852,-0.661504745483398,0.153032958507538,0.308632671833038,0.745829565523804
6.117739852,-0.578680992126465,0.175029337406158,0.249205946922302,0.653919386149967
6.122739852,-0.460777282714844,0.166826546192169,0.212087854743004,0.53397383728978
6.127739852,-0.319144248962402,0.150508642196655,0.199780479073524,0.405485071045166
6.132739852,-0.179749488830566,0.132428050041199,0.21772737801075,0.311852975467607
6.137739852,-0.0303630828857422,0.122485101222992,0.243074953556061,0.273879444044664
6.142739852,0.0797748565673828,0.120967388153076,0.243574529886246,0.28341786878429
6.147739852,0.143779754638672,0.117795765399933,0.180817872285843,0.259313638530819
6.152739852,0.172185897827148,0.111066162586212,0.108924210071564,0.23205206187811
6.157739852,0.203951835632324,0.119180858135223,0.0325809568166733,0.238457432156628
6.162739852,0.19505786895752,0.143548667430878,-0.0191389322280884,0.242940508952832
6.167739852,0.190817832946777,0.150923669338226,-0.0370822846889496,0.246098547689276
6.172739852,0.166519165039063,0.175742924213409,-0.0289507955312729,0.243828538728099
6.177739852,0.160014152526855,0.175495445728302,-0.0202742069959641,0.238357345071593
6.182739852,0.188796043395996,0.182258903980255,-0.0547066181898117,0.268057956710545
6.187739852,0.208226203918457,0.187186479568481,-0.0729449689388275,0.289340454525493
6.192739852,0.162476539611816,0.219274342060089,-0.071608379483223,0.282148228813027
6.197739852,0.188534736633301,0.240590691566467,-0.0601094961166382,0.311516258498999
6.202739852,0.176882743835449,0.244951009750366,-0.074954941868782,0.31129848305932
6.207739852,0.153909683227539,0.254520416259766,-0.074894905090332,0.306721501842854
6.212739852,0.124178886413574,0.270998954772949,-0.104752644896507,0.315965102395439
6.217739852,0.0733985900878906,0.296361923217773,-0.171420931816101,0.350146938334363
6.222739852,0.0108509063720703,0.314531326293945,-0.207189545035362,0.376795972591646
6.227739852,-0.0769815444946289,0.339694380760193,-0.247612297534943,0.427352641741411
6.232739852,-0.148740768432617,0.366664111614227,-0.278848081827164,0.484068837747757
6.237739852,-0.236564636230469,0.388228297233582,-0.291395545005798,0.539995742147071
6.242739852,-0.300477027893066,0.413575291633606,-0.316907793283463,0.601466138352831
6.247739852,-0.336437225341797,0.40930962562561,-0.378405421972275,0.651087582129685
6.252739852,-0.3455810546875,0.406960904598236,-0.375047117471695,0.65245979458827
6.257739852,-0.317315101623535,0.388063192367554,-0.368399292230606,0.62209320322992
6.262739852,-0.21314525604248,0.346485793590546,-0.330085158348084,0.523869752033045
6.267739852,-0.142827033996582,0.308645665645599,-0.28827890753746,0.445832297050211
6.272739852,-0.127054214477539,0.296126246452332,-0.299231559038162,0.439742030261903
6.277739852,-0.112438201904297,0.271520555019379,-0.335073888301849,0.445690780325579
6.282739852,-0.146581649780273,0.267828106880188,-0.311898767948151,0.436461815437395
6.287739852,-0.185317039489746,0.289072573184967,-0.329014390707016,0.475558436982598
6.292739852,-0.272964477539063,0.307492077350616,-0.301016986370087,0.509580425168491
6.297739852,-0.346586227416992,0.317580938339233,-0.281626045703888,0.547989867653025
6.302739852,-0.379785537719727,0.31360250711441,-0.261205613613129,0.557505120794883
6.307739852,-0.362554550170898,0.321961522102356,-0.307134419679642,0.573965656913407
6.312739852,-0.299225807189941,0.306262195110321,-0.342692166566849,0.548425507127946
6.317739852,-0.173897743225098,0.278840243816376,-0.306084394454956,0.449087923684455
6.322739852,-0.0344266891479492,0.236852705478668,-0.254422634840012,0.349306853836549
6.327739852,0.111689567565918,0.193492293357849,-0.216103374958038,0.310828724155597
6.332739852,0.241299629211426,0.147752583026886,-0.214892476797104,0.355295811166811
6.337739852,0.34781551361084,0.108664691448212,-0.218925714492798,0.42510247604794
6.342739852,0.452315330505371,0.0758830308914185,-0.205015659332275,0.502373181170033
6.347739852,0.527544975280762,0.0357078909873962,-0.197837769985199,0.564551625323552
6.352739852,0.566161155700684,0.00519090890884399,-0.156309753656387,0.587365421903396
6.357739852,0.575644493103027,-0.0167426466941834,-0.101021140813828,0.584681254658891
6.362739852,0.579074859619141,-0.0424277186393738,-0.0466808378696442,0.582500562210957
6.367739852,0.555746078491211,-0.0532037019729614,-0.023102879524231,0.55876478119536
6.372739852,0.526786804199219,-0.0730782151222229,-0.0218425393104553,0.532279869173544
6.377739852,0.488526344299316,-0.0645743012428284,-0.00144800543785095,0.492777765504088
6.382739852,0.426732063293457,-0.0633490085601807,0.0165398567914963,0.431725511860177
6.387739852,0.35933780670166,-0.0648193359375,0.0251545906066895,0.366002676308696
6.392739852,0.323691368103027,-0.0610914826393127,0.0132665932178497,0.329672979679996
6.397739852,0.293093681335449,-0.061446487903595,0.0238009840250015,0.300409826328985
6.402739852,0.275913238525391,-0.0707175135612488,0.00838994979858398,0.284955212578183
6.407739852,0.250025749206543,-0.066046416759491,0.00700858235359192,0.258696974585457
6.412739852,0.231057167053223,-0.065024733543396,0.00805383920669556,0.240167638837995
6.417739852,0.186407089233398,-0.0748805403709412,0.0121964067220688,0.201254690826431
6.422739852,0.149297714233398,-0.0770538449287415,-0.0123953074216843,0.168465860457536
6.427739852,0.09521484375,-0.066890299320221,0.00647217035293579,0.11654212801628
6.432739852,0.0336217880249023,-0.061510443687439,-0.00388328731060028,0.0702071166830951
6.437739852,-0.0394659042358398,-0.0602405071258545,-0.0216339975595474,0.0751964503573082
6.442739852,-0.0996227264404297,-0.0577046871185303,-0.0165770500898361,0.116315592800592
6.447739852,-0.150543212890625,-0.0555517077445984,-0.0353275984525681,0.164308521973753
6.452739852,-0.20905876159668,-0.0472447276115418,-0.0309931188821793,0.216559930516869
6.457739852,-0.268074989318848,-0.0331550240516663,-0.0501402318477631,0.274731684317471
6.462739852,-0.31534481048584,-0.0322639942169189,-0.0751122087240219,0.325768566197816
6.467739852,-0.352614402770996,-0.0239704251289368,-0.0982234179973602,0.366823306464424
6.472739852,-0.360310554504395,-0.0332191586494446,-0.151981830596924,0.392461061788597
6.477739852,-0.324831008911133,-0.033217191696167,-0.183372005820274,0.374491466782562
6.482739852,-0.279708862304688,-0.0442838072776794,-0.205995813012123,0.350189060676251
6.487739852,-0.226349830627441,-0.0516803860664368,-0.219984441995621,0.31984099619838
6.492739852,-0.160932540893555,-0.0580142140388489,-0.205572515726089,0.267441565525919
6.497739852,-0.0896196365356445,-0.0601078867912293,-0.194843247532845,0.222729720550342
6.502739852,-0.023676872253418,-0.0645351409912109,-0.208316907286644,0.219365705077007
6.507739852,0.0479030609130859,-0.0614657998085022,-0.223875731229782,0.237050819076019
6.512739852,0.100193023681641,-0.0668571591377258,-0.242811754345894,0.271046250243326
6.517739852,0.141853332519531,-0.0859009623527527,-0.240601539611816,0.292216433732948
6.522739852,0.191531181335449,-0.0765987634658814,-0.239533960819244,0.316114033813765
6.527739852,0.200172424316406,-0.0668070316314697,-0.253894329071045,0.330143164803622
6.532739852,0.181977272033691,-0.0494557619094849,-0.267801403999329,0.327535023939247
6.537739852,0.146279335021973,-0.0359713435173035,-0.28963565826416,0.32646653112842
6.542739852,0.117114067077637,-0.000893473625183106,-0.317165851593018,0.338098625284558
6.547739852,0.0932674407958984,0.0100685358047485,-0.359501838684082,0.37153971919985
6.552739852,0.0556221008300781,0.0465435385704041,-0.364994168281555,0.372130168036603
6.557739852,-0.00748634338378906,0.0837418437004089,-0.394850641489029,0.403702577162818
6.562739852,-0.0843429565429688,0.117676496505737,-0.418253272771835,0.442602860737055
6.567739852,-0.128905296325684,0.136362433433533,-0.459576696157455,0.496409134005136
6.572739852,-0.133291244506836,0.156953096389771,-0.493682295084,0.534904700678469
6.577739852,-0.130764961242676,0.15583062171936,-0.515949010848999,0.554604399144382
6.582739852,-0.166428565979004,0.15638542175293,-0.510472059249878,0.559228567748001
6.587739852,-0.219460487365723,0.168920278549194,-0.499847888946533,0.571441053919163
6.592739852,-0.268567085266113,0.165501058101654,-0.477582424879074,0.572366885899664
6.597739852,-0.318343162536621,0.175571203231812,-0.449619442224503,0.578208664207271
6.602739852,-0.347231864929199,0.165286421775818,-0.4199438393116,0.569422863451609
6.607739852,-0.385976791381836,0.168716609477997,-0.359296977519989,0.553658464989173
6.612739852,-0.399004936218262,0.159327447414398,-0.314649164676666,0.532535699702706
6.617739852,-0.386401176452637,0.161148905754089,-0.27350527048111,0.500079965576174
6.622739852,-0.364350318908691,0.166151762008667,-0.242517679929733,0.468158507330531
6.627739852,-0.336699485778809,0.158596396446228,-0.241050660610199,0.443423929970019
6.632739852,-0.310386657714844,0.152895271778107,-0.225456357002258,0.412973861560538
6.637739852,-0.243889808654785,0.133572280406952,-0.218733608722687,0.353791159363304
6.642739852,-0.16887092590332,0.127434730529785,-0.221012681722641,0.305947063465033
6.647739852,-0.101021766662598,0.124358475208282,-0.203397154808044,0.258922440664707
6.652739852,-0.0374574661254883,0.128754377365112,-0.202505707740784,0.242877156453248
6.657739852,0.00654888153076172,0.130257844924927,-0.180447578430176,0.222646182484912
6.662739852,0.0852279663085938,0.118340134620667,-0.132362544536591,0.196946786973886
6.667739852,0.167439460754395,0.118529140949249,-0.0713249146938324,0.217192020405842
6.672739852,0.264107704162598,0.121297597885132,-0.0169496238231659,0.291124159764332
6.677739852,0.393711090087891,0.101683974266052,0.0118647217750549,0.406803176860179
6.682739852,0.493007659912109,0.0737671852111816,0.0238589644432068,0.499066529162493
6.687739852,0.612226486206055,0.0546542406082153,0.017913818359375,0.614922158746037
6.692739852,0.669957160949707,0.000716209411621094,0.0186591744422913,0.670217334343555
6.697739852,0.684666633605957,-0.0355784296989441,-0.0568487048149109,0.687943310943779
6.702739852,0.981622695922852,-0.170292019844055,-0.138668477535248,1.00588838139992
6.707739852,1.08117389678955,-0.249426364898682,-0.228974163532257,1.13295175279928
6.712739852,0.934964179992676,-0.258131861686707,-0.267924904823303,1.00626727588241
6.717739852,0.45770263671875,-0.150509774684906,-0.127907335758209,0.498502941290982
6.722739852,0.50462818145752,-0.204583764076233,0.149853557348251,0.564765621027563
6.727739852,0.235374450683594,-0.131262004375458,0.346132606267929,0.438678272711443
6.732739852,0.0886201858520508,-0.10220992565155,0.322724163532257,0.349930410181428
6.737739852,0.0561017990112305,-0.115112543106079,0.222012609243393,0.256296523768281
6.742739852,0.09039306640625,-0.123391449451447,0.115155428647995,0.191460515509483
6.747739852,0.113131523132324,-0.136794686317444,0.0322204530239105,0.180415313440942
6.752739852,0.0585050582885742,-0.110950350761414,-0.0272975862026215,0.128366585963481
6.757739852,-0.0279855728149414,-0.0880547165870667,0.0236811935901642,0.0953814674287613
6.762739852,-0.150091171264648,-0.0804290771484375,0.176383465528488,0.245167948668627
